time,seconds_elapsed,z,y,x
1774021055913457400,0.10545751953125,-8.470122579053044,-4.942359956315159,0.02196238709166646
1774021055923535400,0.115535400390625,-8.47011030409336,-4.942380999103189,0.02200679705555085
1774021055933613300,0.12561328125,-8.469985216408967,-4.942596687680482,0.02177503412629012
1774021055943691300,0.135691162109375,-8.4699606664896,-4.942633512559532,0.022736695932410657
1774021055953769500,0.14576953125,-8.469939623701572,-4.942655724391341,0.025617795193521305
1774021055963847400,0.155847412109375,-8.469867142987251,-4.942763860940933,0.028690535436058415
1774021055973925400,0.16592529296875,-8.469564945170283,-4.943265380722284,0.03127675482026534
1774021055984003300,0.17600341796875,-8.468884561690688,-4.944416304323077,0.033556150444736706
1774021055994081300,0.186081298828125,-8.468015962162614,-4.945887545919418,0.03591915324903093
1774021056004158200,0.196158203125,-8.467271281275153,-4.947146021547913,0.038101054732222105
1774021056014236200,0.206236083984375,-8.466891342046857,-4.9477831504076715,0.03966723546986468
1774021056024314000,0.216314208984375,-8.466821783941983,-4.947895963132381,0.04047957019947935
1774021056034392300,0.226392333984375,-8.46699772503078,-4.947594349837303,0.04048699088753201
1774021056044470300,0.23647021484375,-8.467242639702558,-4.947176416686177,0.04041850136173889
1774021056054548200,0.24654833984375,-8.467507428118585,-4.946721074134111,0.04062903883988037
1774021056064626200,0.256626220703125,-8.467668756160139,-4.946441672670841,0.041015353010036046
1774021056074704100,0.2667041015625,-8.467813717588783,-4.946191497302055,0.04124834434858057
1774021056084782300,0.2767822265625,-8.467880937606095,-4.9460792690992355,0.040890872680419126
1774021056094860300,0.2868603515625,-8.46776286418438,-4.946289696979522,0.03996874830024317
1774021056104938200,0.296938232421875,-8.467475279414653,-4.946789463195205,0.03897430760252755
1774021056115016200,0.30701611328125,-8.467078973573447,-4.947471015718579,0.03856758996516
1774021056125094100,0.31709423828125,-8.466738781833648,-4.948049692389369,0.03904604853133205
1774021056135172000,0.327172119140625,-8.466635321459174,-4.948220372781157,0.039812877318519166
1774021056145250300,0.337250244140625,-8.466793726891279,-4.947940386795997,0.040877620473201384
1774021056155328300,0.347328369140625,-8.466966745370627,-4.947632343760133,0.04240137314149178
1774021056165406200,0.35740625,-8.467080727139114,-4.947422500401735,0.043999136327486484
1774021056175484200,0.367484130859375,-8.46705383913219,-4.947455233627558,0.04548509143576957
1774021056185562000,0.37756201171875,-8.466799572110176,-4.94787901199758,0.04676493864585645
1774021056195640300,0.387640380859375,-8.466472239851951,-4.948429631617665,0.0477772209609393
1774021056205718300,0.39771826171875,-8.466247783446311,-4.948806063714623,0.0485020737699233
1774021056215796200,0.407796142578125,-8.466305651113391,-4.948706694993376,0.04844887771138456
1774021056225874200,0.417874267578125,-8.466656364247202,-4.948106391012669,0.04854783544067759
1774021056235952000,0.4279521484375,-8.467087156879902,-4.947364632734656,0.0489620970636839
1774021056246030300,0.4380302734375,-8.467359544080495,-4.94689058548212,0.04974715562730562
1774021056256108300,0.4481083984375,-8.467591599270701,-4.946482589203119,0.05084634904086124
1774021056266186200,0.458186279296875,-8.467737729743122,-4.946217800787091,0.05228865680366289
1774021056276264200,0.46826416015625,-8.467812548545002,-4.946075761967897,0.05349179464888293
1774021056286342100,0.478342041015625,-8.467792090278863,-4.946099727365374,0.05453638093152549
1774021056296420400,0.48842041015625,-8.467733053568004,-4.946193250867724,0.05523370641276706
1774021056306498300,0.498498291015625,-8.467588092139362,-4.946438750061392,0.05543677753708325
1774021056316576300,0.508576171875,-8.467513857859373,-4.946565591311455,0.055477525106002575
1774021056326654200,0.518654296875,-8.467496322202681,-4.94659247931838,0.055779289098130534
1774021056336732200,0.528732177734375,-8.467602705186605,-4.946401340660453,0.056544236455485224
1774021056346810400,0.538810302734375,-8.46772311669588,-4.946190328258275,0.057042130374489346
1774021056356888300,0.548888427734375,-8.467775139144063,-4.946099142843485,0.05715471933691296
1774021056366966300,0.55896630859375,-8.467740652352571,-4.94616344025135,0.05676752838392276
1774021056377044200,0.569044189453125,-8.46776227966249,-4.946123692762852,0.056925372127024455
1774021056387122200,0.5791220703125,-8.467716686955093,-4.946193250867724,0.05767150518605485
1774021056397200400,0.589200439453125,-8.467847619858384,-4.94595768854618,0.058726530664321035
1774021056407278300,0.5992783203125,-8.468136958193778,-4.9454526616334915,0.05949695791439153
1774021056417356300,0.609356201171875,-8.468502868896723,-4.944814948251843,0.060375667844526464
1774021056427434200,0.619434326171875,-8.46871037416756,-4.9444466994613405,0.061457535663945594
1774021056437512200,0.62951220703125,-8.468596976920962,-4.944620886984467,0.06303309158470947
1774021056447590400,0.63959033203125,-8.468138127237557,-4.945385441616177,0.06475232572590466
1774021056457668400,0.64966845703125,-8.467527886384724,-4.946409523966908,0.06621055257704574
1774021056467746300,0.659746337890625,-8.466984281027317,-4.947332484030723,0.06675854641520418
1774021056477824300,0.66982421875,-8.466796649500727,-4.947659231767058,0.06638333816095254
1774021056487902200,0.679902099609375,-8.467064360526203,-4.947219086784124,0.06506629161247983
1774021056497980400,0.68998046875,-8.467591599270701,-4.946337627774477,0.06340281081309077
1774021056508058400,0.700058349609375,-8.468176121160388,-4.945356800043583,0.06180211131791584
1774021056518136300,0.71013623046875,-8.468778763228654,-4.944344992652535,0.06013308212715201
1774021056528214300,0.72021435546875,-8.469676588851213,-4.942838095220923,0.05757306804656982
1774021056538292200,0.730292236328125,-8.470902331253885,-4.940761288946867,0.05549259024439379
1774021056548370400,0.740370361328125,-8.472023444238305,-4.938844057148695,0.054974566852813586
1774021056558448400,0.750448486328125,-8.472565880551933,-4.9379012233406305,0.056074372187722474
1774021056568526300,0.7605263671875,-8.472302845701575,-4.938332600495219,0.05786920144893229
1774021056578604300,0.770604248046875,-8.471396836772561,-4.939869893065095,0.05919858688917011
1774021056588682200,0.78068212890625,-8.470301442751287,-4.941738025024533,0.06008340233310591
1774021056598760200,0.79076025390625,-8.469264500918984,-4.943507372784614,0.06063188022845424
1774021056608838400,0.80083837890625,-8.468623864927887,-4.94459809063077,0.0611720834858017
1774021056618916400,0.810916259765625,-8.468691669467091,-4.944470664858818,0.06210708104728255
1774021056628994300,0.820994384765625,-8.469583065348862,-4.942934541332721,0.0628217595221242
1774021056639072300,0.831072265625,-8.470862583765387,-4.94073615450561,0.06318379776754882
1774021056649150200,0.841150146484375,-8.472225104290246,-4.938402158600091,0.06304094609760214
1774021056659228400,0.851228515625,-8.473459029999376,-4.936293203622102,0.06233218134031631
1774021056669306400,0.861306396484375,-8.474145258697867,-4.935128251495957,0.06125662453067489
1774021056679384300,0.87138427734375,-8.474298987954855,-4.934880998736619,0.05990851155708078
1774021056689462300,0.881462158203125,-8.47412246234417,-4.935203654819727,0.0583059717312688
1774021056699540200,0.891540283203125,-8.473793961042166,-4.935779408881068,0.05732073268673848
1774021056709618400,0.901618408203125,-8.473406423029303,-4.93644693287909,0.057121812581154514
1774021056719696400,0.9116962890625,-8.472913671076297,-4.93728572179079,0.057701224470883605
1774021056729774300,0.9217744140625,-8.472361882412432,-4.938226217511296,0.058250528916716574
1774021056739852300,0.931852294921875,-8.471821199664474,-4.939149762097001,0.058588578931777734
1774021056749930200,0.94193017578125,-8.471262981259823,-4.9401019482553,0.058993680000794115
1774021056760008400,0.952008544921875,-8.470778412613273,-4.940924955075979,0.05962465311440173
1774021056770086400,0.96208642578125,-8.470339436674118,-4.941669635963439,0.0603428752531996
1774021056780164400,0.972164306640625,-8.470083416086435,-4.9421010131180285,0.060910194846335794
1774021056790242300,0.9822421875,-8.469911566650866,-4.942393274062872,0.061103698991285635
1774021056800321300,0.9923212890625,-8.469621059271693,-4.942887779581547,0.061361454878328364
1774021056810399200,1.002399169921875,-8.469070439651608,-4.943828275302052,0.061607935886108314
1774021056820477200,1.012477294921875,-8.468444416707754,-4.944901457491516,0.0615153987644473
1774021056830555100,1.02255517578125,-8.467748251137136,-4.9461008964091535,0.060893001682939936
1774021056840633000,1.032633056640625,-8.467197631517053,-4.9470560051769015,0.05988578826861921
1774021056850711300,1.042711181640625,-8.466776775756477,-4.94778607301712,0.0590256780076772
1774021056860789200,1.052789306640625,-8.466450612542033,-4.948343706899881,0.059108442653995
1774021056870867200,1.0628671875,-8.466264150059223,-4.948657595154643,0.05956554333830718
1774021056880945200,1.072945068359375,-8.466405019834637,-4.948413849526643,0.05975444437337573
1774021056891023000,1.083023193359375,-8.466663378509878,-4.947967859324812,0.060052381573757155
1774021056901101300,1.093101318359375,-8.466800156632065,-4.94772995891571,0.060370923170750025
1774021056911179300,1.10317919921875,-8.466779113844037,-4.947763861185312,0.060631071944278664
1774021056921257200,1.11325732421875,-8.466731767570971,-4.947845694249868,0.06051287979155313
1774021056931335200,1.123335205078125,-8.466665132075548,-4.9479625986278055,0.06032440344817005
1774021056941413000,1.1334130859375,-8.46664233572185,-4.948002346116304,0.06024693146490026
1774021056951491300,1.1434912109375,-8.466606095364689,-4.948056706652045,0.06084504348852206
1774021056961569300,1.1535693359375,-8.466592066839336,-4.9480683970898385,0.06181894372170791
1774021056971647200,1.163647216796875,-8.466484514811635,-4.948235570350289,0.06312030864385888
1774021056981725200,1.17372509765625,-8.466352997386455,-4.9484477517962455,0.06419452744636218
1774021056991803100,1.18380322265625,-8.46595259989202,-4.949119367447495,0.06517176584752742
1774021057001882000,1.193882080078125,-8.465294428244233,-4.950235804256796,0.06585390289279167
1774021057011960000,1.2039599609375,-8.464414722800255,-4.951726919597387,0.06685175939030014
1774021057022038000,1.2140380859375,-8.463255031371116,-4.953686236971617,0.06846155550738331
1774021057032116000,1.224115966796875,-8.462042148450017,-4.955734401673078,0.07011838280369993
1774021057042194000,1.23419384765625,-8.46113964665234,-4.957257665717601,0.0713693738120608
1774021057052272000,1.244272216796875,-8.460477383351325,-4.958370010873675,0.07261218151396606
1774021057062350000,1.25435009765625,-8.460063541853428,-4.959056239572167,0.07393257993014994
1774021057072428000,1.264427978515625,-8.45989110789597,-4.959336225557327,0.07489664375591092
1774021057082506000,1.274506103515625,-8.459876494848727,-4.959357852867245,0.0751192598309135
1774021057092584000,1.284583984375,-8.459775957083702,-4.959529702302813,0.07507670846397523
1774021057102662100,1.294662109375,-8.459509415102005,-4.9599850448548795,0.07504591603348963
1774021057112740000,1.304739990234375,-8.459217738679051,-4.960483642026782,0.0749433233086951
1774021057122818000,1.314818115234375,-8.459028938108682,-4.960807467153668,0.07486621208502911
1774021057132896000,1.32489599609375,-8.458886314767598,-4.961050628259778,0.07487322634770535
1774021057142974000,1.334973876953125,-8.45879279126525,-4.961204942038655,0.07522037298467475
1774021057153052200,1.34505224609375,-8.458708035591243,-4.961340551117062,0.07575123759151901
1774021057163130000,1.355130126953125,-8.45854670754969,-4.961608846664428,0.07619334163609892
1774021057173208000,1.3652080078125,-8.458298870268463,-4.962030286946892,0.0762563284362899
1774021057183286000,1.3752861328125,-8.457974460619688,-4.962583829176426,0.07623594780196435
1774021057193364000,1.385364013671875,-8.45768862941563,-4.963064306169748,0.07667633024691603
1774021057203442200,1.395442138671875,-8.457375325682758,-4.963578685432672,0.07793834040621295
1774021057213520100,1.40552001953125,-8.457011168545485,-4.964177235847711,0.0793005230043549
1774021057223598000,1.41559814453125,-8.456628306707739,-4.964816702795028,0.08009322601831517
1774021057233676000,1.425676025390625,-8.456281100705265,-4.965421098428965,0.07931228650738485
1774021057243754000,1.43575390625,-8.456073595434427,-4.9658033757448194,0.07744419108056463
1774021057253833000,1.4458330078125,-8.45614139997363,-4.965723296245932,0.07515841366436797
1774021057263911000,1.455910888671875,-8.456445935878158,-4.965232882380485,0.07327818027518224
1774021057273988900,1.46598876953125,-8.45689075703621,-4.964493462190032,0.0720628633684013
1774021057284066800,1.47606689453125,-8.4572993378371,-4.963803141838312,0.0716384182780981
1774021057294145000,1.48614501953125,-8.457360712635516,-4.963698512420058,0.0716815861329669
1774021057304223000,1.496222900390625,-8.4569252438277,-4.964432671913504,0.07216149687070865
1774021057314301000,1.506301025390625,-8.45586141398847,-4.966229492202401,0.07323343238458037
1774021057324379000,1.51637890625,-8.45433347376883,-4.968807818257808,0.07473423343554604
1774021057334456800,1.526456787109375,-8.45271201004684,-4.971536366438865,0.07659197186513338
1774021057344535000,1.53653515625,-8.451470485553145,-4.973623109585047,0.07813979952875524
1774021057354613000,1.546613037109375,-8.450788348507881,-4.974759420138597,0.07956162162595429
1774021057364691000,1.55669091796875,-8.450785425898433,-4.9747465606570245,0.08067372932001017
1774021057374769000,1.566768798828125,-8.451354165697097,-4.97376573292613,0.08158981211846694
1774021057384846800,1.576846923828125,-8.45226309723556,-4.972212073743343,0.08206617919225245
1774021057394924800,1.5869248046875,-8.453151570507883,-4.970708683443069,0.08168575590676627
1774021057405003000,1.5970029296875,-8.453834292075037,-4.969570619323849,0.08024271749160251
1774021057415081000,1.6070810546875,-8.45414350415468,-4.969069684064388,0.07863852456482127
1774021057425159000,1.617158935546875,-8.453931907230615,-4.969453714945912,0.07714013010007328
1774021057435236900,1.62723681640625,-8.45325093922913,-4.970629772987961,0.07595994387217797
1774021057445314800,1.637314697265625,-8.452460665634273,-4.971984694728255,0.07522404451279435
1774021057455393000,1.64739306640625,-8.451738781100511,-4.973211021652817,0.07530560814929195
1774021057465471000,1.657470947265625,-8.451195175743102,-4.974123460322618,0.0760151126920944
1774021057475549000,1.667548828125,-8.45082634243071,-4.974731363087892,0.07728671723022125
1774021057485627000,1.677626953125,-8.450452832943201,-4.975346280115843,0.07851376567399129
1774021057495704800,1.687704833984375,-8.450040160489081,-4.976041861164569,0.07885473373192362
1774021057505783000,1.697782958984375,-8.449478434953093,-4.977003984194994,0.07829831455871462
1774021057515861000,1.707861083984375,-8.449065177977085,-4.977720608031749,0.0773717468988616
1774021057525939000,1.71793896484375,-8.4487922062546,-4.978198162415623,0.07641294833668508
1774021057536017000,1.728016845703125,-8.448621525862812,-4.978498022145033,0.0757322406301042
1774021057546094800,1.7380947265625,-8.448452599036694,-4.978792621177434,0.07522341432513203
1774021057556173000,1.748173095703125,-8.448146309566498,-4.979319275400043,0.07473328815405257
1774021057566251000,1.7582509765625,-8.447701488408446,-4.980083830031752,0.07414667020540218
1774021057576329000,1.768328857421875,-8.447121058171987,-4.981072256547212,0.073764685150492
1774021057586407000,1.778406982421875,-8.446477499571442,-4.9821758338749405,0.07299973322656005
1774021057596484900,1.78848486328125,-8.445781334000825,-4.983374103748798,0.07170466104787775
1774021057606563000,1.79856298828125,-8.445113225480913,-4.98452736543715,0.07020701550180092
1774021057616641000,1.80864111328125,-8.444534548810124,-4.985531574043631,0.06856076439842582
1774021057626719000,1.818718994140625,-8.444085051476955,-4.986309572678804,0.06729680431063752
1774021057636797000,1.828796875,-8.44379395957589,-4.986806416285038,0.06701342079199385
1774021057646875000,1.838875,-8.443615095877647,-4.987098092707991,0.06786677251858636
1774021057656954000,1.8489541015625,-8.443538523510098,-4.9872185042172665,0.06852783937635831
1774021057667032000,1.859031982421875,-8.443505205762385,-4.987265265968442,0.06921845655560027
1774021057677110000,1.869110107421875,-8.443401160866022,-4.987426594009995,0.0702851587719284
1774021057687188000,1.87918798828125,-8.443060969126224,-4.987974291020631,0.07223665816588327
1774021057697266200,1.88926611328125,-8.442461249667405,-4.988956872317194,0.07446856367010622
1774021057707344100,1.89934423828125,-8.441563424044848,-4.990444480526447,0.07648053824675735
1774021057717422000,1.909422119140625,-8.440510115599631,-4.992213828286529,0.07729185006306506
1774021057727500000,1.9195,-8.439647945812345,-4.993688577014208,0.07617400674796662
1774021057737578000,1.929577880859375,-8.439107847586273,-4.994636671519279,0.0737916462226538
1774021057747656200,1.93965625,-8.438971069464086,-4.994899121847748,0.07167965447078459
1774021057757734100,1.949734130859375,-8.438971069464086,-4.994924840810895,0.06982775212693959
1774021057767812000,1.95981201171875,-8.438837213951349,-4.995178523311019,0.06782464584333356
1774021057777890000,1.96989013671875,-8.438258537280559,-4.996199098530411,0.06463043464559595
1774021057787968000,1.979968017578125,-8.437068450713157,-4.99827239767313,0.05943035895158536
1774021057798046200,1.990046142578125,-8.43518161405325,-5.001518832248449,0.0538566550390562
1774021057808124200,2.000124267578125,-8.432282970002293,-5.006456288650631,0.048805340165970844
1774021057818202000,2.0102021484375,-8.427967444890736,-5.0137522908777,0.045118673842749556
1774021057828280000,2.020280029296875,-8.421655193004012,-5.024362532219291,0.04346375080915168
1774021057838358000,2.03035791015625,-8.41296569059193,-5.038886147612333,0.04492075838416349
1774021057848436000,2.04043603515625,-8.401446517711877,-5.058027485933899,0.049333473959611726
1774021057858514200,2.05051416015625,-8.38696966407001,-5.08193618478775,0.05527269584944006
1774021057868592000,2.060592041015625,-8.369468494170905,-5.110623350089788,0.06252163036465644
1774021057878670000,2.070670166015625,-8.349580721396208,-5.1429251987576485,0.0721869372726418
1774021057888748000,2.080748046875,-8.328222291547059,-5.177249493163824,0.08473880506814457
1774021057898826000,2.090825927734375,-8.306392152532935,-5.211886506780981,0.10229964186577126
1774021057908904200,2.100904296875,-8.284943706312776,-5.245425203767419,0.12491952475178986
1774021057918982100,2.110982177734375,-8.264910972109437,-5.276254057273269,0.15092212714497
1774021057929060000,2.12106005859375,-8.24668324150145,-5.303839983335137,0.1785589431438595
1774021057939138000,2.131137939453125,-8.230296754845977,-5.328294625633955,0.2046430863406509
1774021057949216000,2.141216064453125,-8.21533474803567,-5.350513471704721,0.22508924191677943
1774021057959294200,2.151294189453125,-8.200825745689869,-5.372241903910041,0.2363255610011518
1774021057969372200,2.1613720703125,-8.186479240429401,-5.394129910591245,0.23517474699821322
1774021057979450000,2.1714501953125,-8.171849242052435,-5.416664398482442,0.2258323884342797
1774021057989528000,2.181528076171875,-8.156457611653208,-5.440138213050365,0.21790143103823065
1774021057999606000,2.19160595703125,-8.139903367215394,-5.464911419779062,0.21701662929402663
1774021058009684200,2.201684326171875,-8.121254780846833,-5.492378103375435,0.2222409398135729
1774021058019762200,2.21176220703125,-8.09968300050795,-5.523842916697263,0.22950344162983818
1774021058029840400,2.22184033203125,-8.074834974977374,-5.559845373448729,0.23567045809328555
1774021058039918300,2.23191845703125,-8.046462866973876,-5.60076190572679,0.23723544238768515
1774021058049996300,2.241996337890625,-8.014346311745047,-5.646890619695187,0.23078244858970864
1774021058060074200,2.25207421875,-7.978007754907011,-5.698763430273533,0.2141696058324538
1774021058070152200,2.262152099609375,-7.937616123285889,-5.7558349785387515,0.18707371004354206
1774021058080230400,2.27223046875,-7.894306558391452,-5.816111460325121,0.15217161574941127
1774021058090309400,2.282309326171875,-7.850209057989716,-5.876359885060787,0.11400213542347773
1774021058100387300,2.29238720703125,-7.808110622450709,-5.932756895065308,0.07868366974764503
1774021058110465300,2.30246533203125,-7.769533346775174,-5.983475859433412,0.05247294559569563
1774021058120543500,2.31254345703125,-7.734097291734814,-6.0292877625375985,0.042601754551799965
1774021058130621400,2.322621337890625,-7.700190345957875,-6.072438337478041,0.05421701278404798
1774021058140699400,2.332699462890625,-7.665704138988256,-6.115515847182274,0.0884919379234314
1774021058150777300,2.34277734375,-7.630101495209336,-6.158861067911982,0.1427135857834015
1774021058160855300,2.352855224609375,-7.595165206384658,-6.200058170697092,0.20768749553784727
1774021058170933500,2.36293359375,-7.5620777602970595,-6.237898364269733,0.2720106771654449
1774021058181011500,2.373011474609375,-7.529995107337832,-6.273970379126071,0.3268890079690143
1774021058191089400,2.38308935546875,-7.496759192690253,-6.311515389144421,0.36573052407130596
1774021058201167400,2.39316748046875,-7.459552036324143,-6.354195423963666,0.38686358419936145
1774021058211245300,2.403245361328125,-7.416507844367623,-6.403970385479926,0.3936575186558068
1774021058221323500,2.413323486328125,-7.367548875409364,-6.4603866847068065,0.3911700492216274
1774021058231401500,2.4234013671875,-7.315893506973981,-6.519290124574304,0.3833272267667576
1774021058241479400,2.4334794921875,-7.265819854772091,-6.575708761888742,0.3718935767456889
1774021058251557400,2.443557373046875,-7.219902737727761,-6.626847997495531,0.3581670300144702
1774021058261635300,2.45363525390625,-7.179263268825411,-6.6715498935312025,0.3449415646731853
1774021058271713300,2.46371337890625,-7.143611525207757,-6.7102364748001095,0.3345475233655423
1774021058281791500,2.47379150390625,-7.1126897327214476,-6.743421536043286,0.3260245000941679
1774021058291869400,2.483869384765625,-7.085296114361285,-6.772618988955021,0.3171500695692375
1774021058301947400,2.493947509765625,-7.05999859149754,-6.799498812574147,0.3059674899660982
1774021058312025300,2.504025390625,-7.035009111669659,-6.825949597126245,0.29231159731829537
1774021058322103300,2.514103271484375,-7.00870971828699,-6.853626124081015,0.27602588588986543
1774021058332181500,2.524181396484375,-6.979200715208053,-6.88440821583569,0.2570114801499061
1774021058342259500,2.534259521484375,-6.945383785802125,-6.919323461872339,0.23449416258921846
1774021058352337400,2.54433740234375,-6.907344270265102,-6.958129870128631,0.2083310541383922
1774021058362415400,2.554415283203125,-6.866240690982341,-6.999500575914978,0.17921240208391098
1774021058372493300,2.564493408203125,-6.823736012730002,-7.041611870935559,0.15069608157044276
1774021058382571500,2.574571533203125,-6.782078891217708,-7.0822244518309825,0.12603621728941797
1774021058392649500,2.5846494140625,-6.743006525501609,-7.11975367975831,0.10652196313538588
1774021058402727400,2.5947275390625,-6.706279846128821,-7.154556697592139,0.09226025008154101
1774021058412805400,2.604805419921875,-6.670389033058285,-7.188147417026758,0.08262184944679028
1774021058422883300,2.61488330078125,-6.633283583500981,-7.22247697212994,0.07593625703591388
1774021058432961500,2.62496142578125,-6.593615589979291,-7.258762921997905,0.07054882380994967
1774021058443039500,2.63503955078125,-6.550244065764546,-7.297976742011309,0.06493504818193614
1774021058453117400,2.645117431640625,-6.502654631593823,-7.340474406000971,0.05744106199762318
1774021058463195400,2.6551953125,-6.450836766073107,-7.386124981063604,0.04735286720218137
1774021058473273300,2.6652734375,-6.3959080750554795,-7.4338120303899045,0.03427684995169984
1774021058483351600,2.6753515625,-6.33945436642766,-7.4820695730805395,0.01819019905110472
1774021058493429500,2.685429443359375,-6.281961377879977,-7.530428238058089,0.0001161985652581734
1774021058503507500,2.695507568359375,-6.224162684383988,-7.578248558375239,-0.018060114389541557
1774021058513585400,2.70558544921875,-6.167113932472467,-7.624687068945169,-0.03515963326875353
1774021058523663400,2.715663330078125,-6.112103992912173,-7.668769371777772,-0.050524268346489404
1774021058533741600,2.725741455078125,-6.059596391561627,-7.710238277241587,-0.062492459069099275
1774021058543819500,2.735819580078125,-6.009094869336486,-7.749598812249302,-0.06986278690770269
1774021058553897500,2.7458974609375,-5.95910421924293,-7.788093085816502,-0.07123376016707625
1774021058563975400,2.755975341796875,-5.908712587133049,-7.826431292039156,-0.06688036443027667
1774021058574053400,2.766053466796875,-5.857827034026384,-7.86465551649332,-0.058566554329637435
1774021058584131600,2.776131591796875,-5.806048331472278,-7.903026455941796,-0.048404992903885426
1774021058594209500,2.78620947265625,-5.752995955720544,-7.941786102446914,-0.03821945923079038
1774021058604288300,2.796288330078125,-5.698098828884959,-7.981306796452403,-0.028138630324474067
1774021058614366200,2.8063662109375,-5.6410471543639895,-8.021758633828163,-0.018972395512426736
1774021058624444400,2.8164443359375,-5.581214909213781,-8.063515124061704,-0.012372596530237933
1774021058634522400,2.8265224609375,-5.518246704125404,-8.106741102325916,-0.009630748192901955
1774021058644600300,2.836600341796875,-5.452221449553966,-8.151291607192158,-0.010907184169773244
1774021058654678300,2.84667822265625,-5.384274871531129,-8.196324342617393,-0.015111667246953583
1774021058664756200,2.856756103515625,-5.316299651935696,-8.2405650508821,-0.020578721030789893
1774021058674834400,2.86683447265625,-5.249871077260375,-8.28302998164594,-0.025605173173965885
1774021058684912400,2.876912353515625,-5.186135394930839,-8.323071484655141,-0.029402257052122148
1774021058694990300,2.886990234375,-5.125425197902321,-8.360585515013337,-0.03197907842032145
1774021058705068300,2.897068359375,-5.067544086819887,-8.395786592254042,-0.03409068201312329
1774021058715146200,2.907146240234375,-5.011657948946953,-8.429253977569937,-0.036610405182512476
1774021058725224200,2.91722412109375,-4.956975341644883,-8.461510818052291,-0.04012249125696253
1774021058735302400,2.927302490234375,-4.903094406114518,-8.492822486639023,-0.04491083064519334
1774021058745380400,2.93738037109375,-4.850389236365259,-8.522998429194093,-0.05102413959344849
1774021058755458300,2.947458251953125,-4.799053016881644,-8.551964411437512,-0.05813266099097673
1774021058765536300,2.957536376953125,-4.7494928671598435,-8.579534555408358,-0.06552615050945897
1774021058775614200,2.9676142578125,-4.701749119210243,-8.605738087201118,-0.07226706700387876
1774021058785692400,2.9776923828125,-4.655713344222307,-8.630683727887272,-0.07766821822794154
1774021058795770400,2.987770263671875,-4.610878761717677,-8.654687119287251,-0.08108225532197393
1774021058805848300,2.997848388671875,-4.565980466327071,-8.678446765059233,-0.08224020231859758
1774021058815926300,3.00792626953125,-4.519478827393055,-8.702762875670194,-0.08136105399704538
1774021058826004200,3.018004150390625,-4.470023014828563,-8.728288946592807,-0.07903355176439508
1774021058836082400,3.02808251953125,-4.417380388921499,-8.755070570534468,-0.07656966870178003
1774021058846160400,3.038160400390625,-4.36186629923135,-8.7828739387393,-0.0750688356847735
1774021058856238300,3.04823828125,-4.303473439234495,-8.811638845452666,-0.07439047976548317
1774021058866316300,3.05831640625,-4.242167029878497,-8.841319113445282,-0.07400080916103907
1774021058876394200,3.068394287109375,-4.178904810279607,-8.871398025366663,-0.07372332109364214
1774021058886472400,3.078472412109375,-4.114442567241191,-8.901475768244266,-0.07403866151997353
1774021058896550400,3.08855029296875,-4.049131598418951,-8.93136237246394,-0.07542492824660148
1774021058906628400,3.09862841796875,-3.9825530938789244,-8.961221504154802,-0.07857145981113425
1774021058916706300,3.108706298828125,-3.9141900440096853,-8.991255407890677,-0.08268318771258927
1774021058926784300,3.1187841796875,-3.8439138539955016,-9.021485126459599,-0.08668672426552511
1774021058936862500,3.128862548828125,-3.772261699452996,-9.05165697736144,-0.08904391838354057
1774021058946940400,3.1389404296875,-3.700684655973315,-9.081157212612032,-0.08883803881420753
1774021058957018400,3.149018310546875,-3.6302813324481247,-9.109560300275684,-0.08577004781202413
1774021058967096300,3.159096435546875,-3.5613381446033716,-9.136779146590829,-0.08069180383281782
1774021058977174300,3.16917431640625,-3.4938901637524364,-9.162833625301719,-0.0749242624151986
1774021058987252500,3.17925244140625,-3.427693059745431,-9.187844147917628,-0.06962358045750297
1774021058997330400,3.189330322265625,-3.3620831079766154,-9.212090115901827,-0.06467825127611868
1774021059007407400,3.199407470703125,-3.2970983023688194,-9.23558321969211,-0.05947027083686553
1774021059017485300,3.2094853515625,-3.2337232700452208,-9.257994957986474,-0.054388515159743835
1774021059027563500,3.2195634765625,-3.1721576252311467,-9.279292597559094,-0.050275216355710285
1774021059037641500,3.229641357421875,-3.1118864041417837,-9.299695334118605,-0.04698975124452263
1774021059047719400,3.239719482421875,-3.0517317951694127,-9.319621685338019,-0.044377481820317914
1774021059057797400,3.24979736328125,-2.9917037351861593,-9.33907165121734,-0.04270940247762482
1774021059067875300,3.259875244140625,-2.932459226796031,-9.357845909792184,-0.04205883418098092
1774021059077953500,3.26995361328125,-2.8748741760507226,-9.375698377346993,-0.04171637741886079
1774021059088031500,3.280031494140625,-2.8190654873281717,-9.392634314578771,-0.041143395269918254
1774021059098109400,3.290109375,-2.7655273738861084,-9.40854266232848,-0.03984863361848984
1774021059108187400,3.3001875,-2.714118965949118,-9.423511683401465,-0.037008055880723985
1774021059118265300,3.310265380859375,-2.665002468341589,-9.437537870666384,-0.032140712422551586
1774021059128343600,3.320343505859375,-2.616976688580215,-9.450990641957521,-0.02464802771275863
1774021059138421500,3.33042138671875,-2.5695386455789206,-9.464018465834856,-0.014315660314343403
1774021059148499500,3.34049951171875,-2.5224863870248195,-9.476679209965466,-0.0021206258651240203
1774021059158577400,3.350577392578125,-2.475148881788552,-9.489146477350593,0.010581393131375079
1774021059168655400,3.3606552734375,-2.427252135234326,-9.501490410616993,0.022241032786399592
1774021059178733600,3.370733642578125,-2.378735941607505,-9.513725622811913,0.03166555777502945
1774021059188811500,3.3808115234375,-2.329870057760179,-9.525788985571264,0.03823442162119318
1774021059198889500,3.390889404296875,-2.2808473759159447,-9.537627891924977,0.042135100587853226
1774021059208967400,3.400967529296875,-2.2320744310490785,-9.549154079067707,0.04322311502026859
1774021059219045400,3.41104541015625,-2.1836615516662596,-9.560350011342763,0.04142339038823265
1774021059229123600,3.42112353515625,-2.1359682187296447,-9.571139116382598,0.03654287007136736
1774021059239201500,3.431201416015625,-2.08897426623404,-9.581528408449888,0.02964789552639704
1774021059249279500,3.441279541015625,-2.04326830772236,-9.591400983166695,0.02152355271640699
1774021059259357400,3.451357421875,-1.9991893658906221,-9.600701895475387,0.012670214070210932
1774021059269435400,3.461435302734375,-1.9567150827765463,-9.609456279817223,0.0031753763498156328
1774021059279513600,3.471513671875,-1.9154110124856232,-9.617771688219904,-0.006828330487213679
1774021059289591600,3.481591552734375,-1.87496984263435,-9.62572644661665,-0.016518445897003402
1774021059299669500,3.49166943359375,-1.8347687651492655,-9.633452656954526,-0.02484108889971394
1774021059309748500,3.50174853515625,-1.7946444061622022,-9.640990066722035,-0.031075387029268313
1774021059319825400,3.511825439453125,-1.7549224904961882,-9.648283730861545,-0.03527856749028433
1774021059329904600,3.521904541015625,-1.715581975363195,-9.655345924332737,-0.03814744202406145
1774021059339982600,3.531982666015625,-1.6760411153525112,-9.6622795229882,-0.04011468697641976
1774021059350060500,3.542060546875,-1.6356236186377704,-9.66919733955264,-0.04199546378829982
1774021059360138500,3.552138427734375,-1.5941205186434089,-9.67611749420464,-0.0440148955856217
1774021059370216700,3.562216796875,-1.551740051292628,-9.682992056149244,-0.04638739230404608
1774021059380294700,3.572294677734375,-1.5094284113943577,-9.689666711607575,-0.04863231712004635
1774021059390372600,3.58237255859375,-1.467651755155623,-9.69607248699665,-0.05063589376111049
1774021059400450600,3.592450439453125,-1.4269839369416235,-9.70213222542703,-0.05234855659762397
1774021059410528500,3.602528564453125,-1.3884179133124648,-9.707715578517318,-0.054207843096903525
1774021059420606700,3.612606689453125,-1.352717654377967,-9.712743051290511,-0.05615895433179102
1774021059430684700,3.6226845703125,-1.32058736288473,-9.717153853470087,-0.057878690796485166
1774021059440762600,3.6327626953125,-1.2924432184182106,-9.720924604180455,-0.059845853550452736
1774021059450840600,3.642840576171875,-1.268256141014397,-9.724096804475783,-0.06206924695465713
1774021059460918500,3.65291845703125,-1.2474217350393533,-9.726776252818107,-0.0644370309653459
1774021059470996500,3.66299658203125,-1.2299712724141776,-9.728981653907894,-0.06669466913244687
1774021059481074700,3.67307470703125,-1.215089637363702,-9.730839848995208,-0.06858967083250173
1774021059491152600,3.683152587890625,-1.2020536301799118,-9.732447868713736,-0.07011679363481234
1774021059501230600,3.693230712890625,-1.190774184339866,-9.7338214951545,-0.07178733892922755
1774021059511308500,3.70330859375,-1.1806032111983746,-9.735046068513393,-0.07387155219160485
1774021059521386500,3.713386474609375,-1.1712370516337454,-9.736160751757025,-0.07590278859115206
1774021059531464700,3.723464599609375,-1.162740368380025,-9.737163206797838,-0.0779408154910896
1774021059541542700,3.733542724609375,-1.1550683724474162,-9.738063370507955,-0.07960266602239571
1774021059551620600,3.74362060546875,-1.1487814741976559,-9.738795776435733,-0.08096566147129051
1774021059561698600,3.753698486328125,-1.1436832742758094,-9.739387312588095,-0.08188740682555362
1774021059571776500,3.763776611328125,-1.139839604459703,-9.739838563486932,-0.08185296569983475
1774021059581854500,3.7738544921875,-1.1376027853183448,-9.740105105468631,-0.08116500170198268
1774021059591932400,3.783932373046875,-1.1365445815023034,-9.740234869328141,-0.08036998799992724
1774021059602010400,3.79401025390625,-1.1362754822373389,-9.74027344777286,-0.07957504736310803
1774021059612088300,3.80408837890625,-1.136643584897369,-9.740234869328141,-0.07904057516022585
1774021059622166300,3.814166259765625,-1.137308259351179,-9.74016005052626,-0.07874225893393158
1774021059632244500,3.824244384765625,-1.1383506810761987,-9.740037300929426,-0.07891196207818575
1774021059642322400,3.834322509765625,-1.1399013445843011,-9.739850838446616,-0.0796035976041574
1774021059652400400,3.844400390625,-1.1421597910355776,-9.739577282202243,-0.08068882642444222
1774021059662478300,3.854478271484375,-1.1446551149826496,-9.739269823688268,-0.0824280165082775
1774021059672556300,3.864556396484375,-1.1477210784245282,-9.738886961850524,-0.08487088874890468
1774021059682634500,3.874634521484375,-1.1513885148908942,-9.73842752764523,-0.08780348986838944
1774021059692712400,3.88471240234375,-1.1559089149247854,-9.737860541412234,-0.09125329239554703
1774021059702790400,3.894790283203125,-1.1614949714288114,-9.73716028418839,-0.0949905700945761
1774021059712868400,3.904868408203125,-1.168180148281157,-9.73632149527669,-0.0989108488108497
1774021059722946300,3.9149462890625,-1.1758791052859277,-9.735350604417919,-0.10321230886443518
1774021059733024500,3.9250244140625,-1.1840732984617353,-9.734306648322939,-0.10772699154359287
1774021059743102500,3.9351025390625,-1.1923134496711194,-9.733251586312056,-0.11218308503646403
1774021059753180400,3.945180419921875,-1.2005378918547183,-9.73219535525739,-0.11609653215315192
1774021059763258400,3.95525830078125,-1.2085820090353487,-9.731156075337529,-0.11969261128320358
1774021059773336300,3.96533642578125,-1.2165672356355934,-9.730123225158453,-0.12272875497555359
1774021059783414500,3.97541455078125,-1.2247341754782943,-9.729069332191347,-0.12508109938851558
1774021059793492500,3.985492431640625,-1.2330920347832142,-9.727987382173538,-0.12701295336708426
1774021059803570400,3.9955703125,-1.2418031645052134,-9.726859254926442,-0.12858546338081359
1774021059813648400,4.0056484375,-1.2507368509367107,-9.725697225409746,-0.12982901543481273
1774021059823726300,4.015726318359375,-1.2595752603001893,-9.724549224418402,-0.13043757578721268
1774021059833804500,4.025804443359375,-1.2681582335978745,-9.72343220308721,-0.13057239028117618
1774021059843882500,4.035882568359375,-1.2765573747612535,-9.722329794803262,-0.13080628123544155
1774021059853960400,4.04596044921875,-1.284943218051642,-9.721218034169077,-0.13122426918549462
1774021059864038400,4.056038330078125,-1.2937854268074034,-9.72003729995191,-0.13185282201315277
1774021059874116400,4.066116455078125,-1.3031092816002665,-9.718777070757746,-0.13288445748267694
1774021059884194600,4.076194580078125,-1.3131181960478424,-9.71740928953588,-0.13438220349345356
1774021059894272500,4.0862724609375,-1.3236165014475583,-9.715966104990244,-0.1357561678609345
1774021059904350500,4.0963505859375,-1.334463766415417,-9.714459792080522,-0.13727135819685646
1774021059914428400,4.106428466796875,-1.3453684606589376,-9.71293418994844,-0.13884486372442914
1774021059924506400,4.11650634765625,-1.356288060210645,-9.711392805725335,-0.14036863922560586
1774021059934584300,4.126584228515625,-1.3670141830168663,-9.70987246429026,-0.1415917695460841
1774021059944662500,4.13666259765625,-1.3774015753880142,-9.708390116778016,-0.14247458939575589
1774021059954740500,4.146740478515625,-1.387332456163317,-9.706966221454739,-0.1431781345552299
1774021059964818400,4.156818359375,-1.3964911835223435,-9.70564111033082,-0.14396946759601123
1774021059974896400,4.166896484375,-1.4052993438780308,-9.70435282408595,-0.14512595328791067
1774021059984974300,4.176974365234375,-1.414300250326842,-9.703021283221243,-0.14660359722557476
1774021059995052500,4.187052490234375,-1.4240699491910636,-9.701566992759703,-0.1483708808927331
1774021060005131000,4.197131103515625,-1.4344536883004009,-9.700004565748571,-0.1504191825915128
1774021060015209000,4.207208984375,-1.445102508086711,-9.69838660915792,-0.1528606391931884
1774021060025287000,4.217286865234375,-1.455849965941906,-9.696736503863335,-0.15554666340677067
1774021060035365000,4.227365234375,-1.4665014160767196,-9.695086983090638,-0.15823827711092306
1774021060045443000,4.237443115234375,-1.4765994701124727,-9.693509358510374,-0.16098552999245003
1774021060055521000,4.24752099609375,-1.486146904528141,-9.692003630122542,-0.16371131996084004
1774021060065599000,4.257598876953125,-1.4955204436816274,-9.690519529044627,-0.1662378427637741
1774021060075677000,4.267677001953125,-1.504887406963855,-9.689030167269706,-0.16852520478228106
1774021060085755100,4.277755126953125,-1.5142536395937203,-9.687532622188328,-0.17062791268257424
1774021060095833000,4.2878330078125,-1.5237662949569521,-9.686002928403019,-0.1728354143979028
1774021060105911000,4.2979111328125,-1.5336815397717058,-9.68439783129394,-0.1749837880708277
1774021060115989000,4.307989013671875,-1.5445460481353104,-9.682633159708976,-0.1770942591524683
1774021060126067000,4.31806689453125,-1.556526554916799,-9.680680272075532,-0.17895280129965394
1774021060136145200,4.328145263671875,-1.569191682961583,-9.67859820510447,-0.1810014774577692
1774021060146223000,4.33822314453125,-1.5822287130586803,-9.67643488959074,-0.18312002224801108
1774021060156301000,4.348301025390625,-1.5955280473537743,-9.674209030234813,-0.1853877845169045
1774021060166379000,4.35837890625,-1.6091123360700905,-9.671925303211808,-0.18715446539586408
1774021060176457000,4.36845703125,-1.623030825176835,-9.669569679996371,-0.18865612039677798
1774021060186535000,4.378534912109375,-1.6375046100787818,-9.667104751187562,-0.18988168013636023
1774021060196613000,4.388613037109375,-1.6526444576740265,-9.664514150172472,-0.19057033825395628
1774021060206691000,4.398691162109375,-1.6684228954337537,-9.661801968604326,-0.19064605210497973
1774021060216769000,4.40876904296875,-1.6850770931147039,-9.658919106644392,-0.19019408882008865
1774021060226847000,4.418846923828125,-1.7023124516844748,-9.655905311781167,-0.18969722694754598
1774021060236925000,4.428925048828125,-1.7197167370803652,-9.652832480207085,-0.18919364307327194
1774021060247003100,4.439003173828125,-1.7374417788632213,-9.649666709652543,-0.18871342180827633
1774021060257081000,4.4490810546875,-1.7555442756563424,-9.646395140635967,-0.18838650967516005
1774021060267159000,4.459158935546875,-1.7746328608773647,-9.64290379138887,-0.18836647153412922
1774021060277237000,4.469237060546875,-1.7951777823865414,-9.639093293190001,-0.18873746027098967
1774021060287315000,4.47931494140625,-1.817589374550432,-9.634885320106148,-0.1890440420021303
1774021060297393200,4.48939306640625,-1.842292000260949,-9.630191609331964,-0.18906747767664492
1774021060307471000,4.49947119140625,-1.8696167911686001,-9.624932665890455,-0.18868567528482524
1774021060317549000,4.509549072265625,-1.8992898987680673,-9.619136546832323,-0.18792311168080195
1774021060327627000,4.519626953125,-1.9304941614575684,-9.612937692192196,-0.1871207823219709
1774021060337705000,4.529705078125,-1.9627840274266897,-9.606407998162508,-0.18656150447139516
1774021060347783200,4.539783203125,-1.9957374718710779,-9.599625790676473,-0.18607010422525927
1774021060357861000,4.549861083984375,-2.028984054043144,-9.59266121236086,-0.1856654872134328
1774021060367939000,4.55993896484375,-2.062477742844075,-9.585520692956447,-0.18539591302443295
1774021060378017000,4.57001708984375,-2.0965400253131983,-9.578133505314588,-0.18509269229415803
1774021060388095000,4.580094970703125,-2.1314009108141065,-9.570449380552768,-0.18440635399781166
1774021060398173200,4.590173095703125,-2.166619085320085,-9.56255891956389,-0.18336612422987816
1774021060408251100,4.600251220703125,-2.2022924562476573,-9.554429389122127,-0.18216323297983034
1774021060418329000,4.6103291015625,-2.2384251152500507,-9.546057282096147,-0.18064848103532566
1774021060428407000,4.620406982421875,-2.275053448814899,-9.537425062829255,-0.17900288751907645
1774021060438485000,4.630485107421875,-2.3125971436589956,-9.528424594771861,-0.177245960849151
1774021060448563200,4.640563232421875,-2.35124076256901,-9.518989826950431,-0.17576291921716183
1774021060458641200,4.65064111328125,-2.3913008241482077,-9.509021975165606,-0.17482114485502243
1774021060468719000,4.660718994140625,-2.432587212651968,-9.49855143455565,-0.17444557127458973
1774021060478797000,4.670797119140625,-2.475036069063842,-9.487576451554894,-0.1745746592806652
1774021060488875000,4.680875,-2.5185996087193487,-9.476099948772788,-0.1748512477323413
1774021060498953200,4.690953125,-2.5637176843404768,-9.463981640955804,-0.1755238862968981
1774021060509031200,4.70103125,-2.6105352573558687,-9.451155477130413,-0.17654018719997255
1774021060519109000,4.711109130859375,-2.6587363936841486,-9.437692184445261,-0.17745573114231228
1774021060529187000,4.72118701171875,-2.7077918087542057,-9.42372854102254,-0.1777164644377306
1774021060539265000,4.73126513671875,-2.757812269464135,-9.409229475548862,-0.17680126755526288
1774021060549343200,4.74134326171875,-2.808430403806269,-9.394290849614142,-0.17440710242772473
1774021060559421200,4.751421142578125,-2.859881481841206,-9.378826153978705,-0.17058854878656565
1774021060569499100,4.7614990234375,-2.9122487979382274,-9.362793887588381,-0.1652119885810651
1774021060579577000,4.7715771484375,-2.9657758054643866,-9.346092928156256,-0.15850277326600626
1774021060589655000,4.781655029296875,-3.020533816090226,-9.328675344887376,-0.15021135766026564
1774021060599733000,4.79173291015625,-3.0762133254751562,-9.31061420301795,-0.14054649827685206
1774021060609811000,4.80181103515625,-3.1323312262773513,-9.29203692831993,-0.13008134622806683
1774021060619889000,4.811888916015625,-3.1883927207171916,-9.273094327440857,-0.11934995359168388
1774021060629966800,4.821966796875,-3.2437834762886166,-9.253996243739127,-0.1086603177377954
1774021060640044800,4.832044921875,-3.2982302290081975,-9.234849060198664,-0.09808882837085985
1774021060650123000,4.842123046875,-3.351928501448035,-9.215599585327505,-0.08768590050386264
1774021060660201000,4.852200927734375,-3.4054107930496333,-9.19606544829607,-0.07702775576678104
1774021060670279000,4.86227880859375,-3.4590354157313703,-9.176116885244845,-0.06579643708451186
1774021060680356900,4.87235693359375,-3.51334509806782,-9.155535284987092,-0.054340314936731006
1774021060690434800,4.882434814453125,-3.5682284886389968,-9.134345197442173,-0.04307744120557327
1774021060700512800,4.8925126953125,-3.6237338105008003,-9.11251388938427,-0.03190573005632032
1774021060710591000,4.902591064453125,-3.680061554661393,-9.08994608374536,-0.020602661312092093
1774021060720668200,4.912668212890625,-3.7370758197814222,-9.066672760185599,-0.009412358485156437
1774021060730747000,4.922746826171875,-3.794599203467369,-9.042752955415844,0.0016678246133051287
1774021060740824000,4.932823974609375,-3.852070856966078,-9.018412879407405,0.01221762402259046
1774021060750902800,4.94290283203125,-3.9088919376015663,-8.993910890835522,0.02227323628925951
1774021060760980000,4.95297998046875,-3.964540467326343,-8.969491904371976,0.03176276193865342
1774021060771058200,4.96305810546875,-4.019001540832221,-8.945188068720698,0.04015698718160856
1774021060781136100,4.97313623046875,-4.072225473758578,-8.921047899198532,0.047518277763808146
1774021060791214000,4.983214111328125,-4.123867105929553,-8.897258442810177,0.05391242664717138
1774021060801292000,4.9932919921875,-4.173924099257588,-8.873851263737677,0.05932258316159714
1774021060811370000,5.003369873046875,-4.222475656458736,-8.850823439371585,0.06331038328928407
1774021060821448200,5.0134482421875,-4.2698868114531034,-8.828034099936485,0.06547568069754633
1774021060831526100,5.023526123046875,-4.31651879876852,-8.805324255478382,0.06560574138457886
1774021060841604000,5.03360400390625,-4.362561880280078,-8.782621425282954,0.0632969621187076
1774021060851682000,5.04368212890625,-4.408130037756264,-8.759872417858242,0.05846719017496798
1774021060861760000,5.053760009765625,-4.453456203170121,-8.736960328826308,0.05137570211063139
1774021060871838200,5.063838134765625,-4.499058555176854,-8.713616862639784,0.04181934916956816
1774021060881916200,5.073916259765625,-4.545209480977058,-8.689681275779009,0.029953408678458072
1774021060891994000,5.083994140625,-4.591920671008527,-8.665125511193274,0.016191659344761865
1774021060902072000,5.094072021484375,-4.638977313476801,-8.640039585253596,0.001127062378359551
1774021060912150000,5.10414990234375,-4.686207558946311,-8.61449948580563,-0.015247055988007923
1774021060922228200,5.114228271484375,-4.73332002325505,-8.588654850453137,-0.03269918427224038
1774021060932306200,5.12430615234375,-4.780267652390897,-8.562526721984147,-0.0504910464968998
1774021060942384000,5.134384033203125,-4.826763446106017,-8.536285780790447,-0.06750232312036678
1774021060952462000,5.144462158203125,-4.8725905467793345,-8.510073481169343,-0.08300408109687268
1774021060962540000,5.1545400390625,-4.917801853641867,-8.483884562423825,-0.09643876874204725
1774021060972618000,5.164617919921875,-4.9628515402019024,-8.457472356316448,-0.1079450273416005
1774021060982696000,5.174696044921875,-5.007919346940517,-8.430734571516513,-0.11764338713581673
1774021060992774000,5.18477392578125,-5.053356571513414,-8.403466040840744,-0.12539627541806547
1774021061002851800,5.194851806640625,-5.099919585245847,-8.37520031582117,-0.1312357312944252
1774021061012933400,5.204933349609375,-5.148294616836309,-8.345486730080843,-0.13527371810623443
1774021061023011300,5.21501123046875,-5.198479328197241,-8.31427092308402,-0.13816929341726936
1774021061033089300,5.22508935546875,-5.249937128233909,-8.281834049859642,-0.14061394662302917
1774021061043167200,5.235167236328125,-5.302148961508274,-8.248459019002318,-0.14326752073857932
1774021061053245200,5.2452451171875,-5.354822567075491,-8.214291376462578,-0.14727659198315812
1774021061063323100,5.2553232421875,-5.40814499194026,-8.179176223939656,-0.15311321658161467
1774021061073401000,5.265401123046875,-5.462608988055586,-8.142754080471397,-0.1607673937297426
1774021061083479000,5.27547900390625,-5.518166624626517,-8.105023777014017,-0.16973978647012264
1774021061093557200,5.28555712890625,-5.574985074913501,-8.065843274748325,-0.17916326571255922
1774021061103635200,5.29563525390625,-5.632997118899226,-8.025224848634004,-0.18842322495635597
1774021061113713200,5.305713134765625,-5.692111571168899,-7.983205323550105,-0.19668262885548174
1774021061123791000,5.315791015625,-5.753019921118021,-7.9392457703143355,-0.20375791927026585
1774021061133869000,5.325869140625,-5.815751394841074,-7.893250327336788,-0.20979097062312066
1774021061143947300,5.335947265625,-5.880092641848325,-7.845321285948157,-0.21405533180302008
1774021061154025200,5.346025146484375,-5.945820959299803,-7.79555684582591,-0.21650920949485153
1774021061164103200,5.356103271484375,-6.012678573042154,-7.7440692351728675,-0.2178747987596318
1774021061174181000,5.36618115234375,-6.080623982021212,-7.690827474328875,-0.21809004894550887
1774021061184259000,5.376259033203125,-6.149419285827875,-7.635976524722576,-0.2165349467243068
1774021061194337000,5.3863369140625,-6.218436707952618,-7.579979327690601,-0.21295601052530108
1774021061204415200,5.396415283203125,-6.287026844576001,-7.523330388751625,-0.20779207015717402
1774021061214493200,5.4064931640625,-6.354704542529583,-7.46641958400607,-0.20171976450616494
1774021061224571100,5.416571044921875,-6.420619322463869,-7.40996762894392,-0.19597137531358746
1774021061234649000,5.426649169921875,-6.484430408117174,-7.354317053392529,-0.19120361292250454
1774021061244727000,5.43672705078125,-6.545661414149404,-7.299946580779552,-0.18835646159676833
1774021061254805200,5.44680517578125,-6.604549656447768,-7.246729954376816,-0.18764447740251197
1774021061264883200,5.45688330078125,-6.660905165398121,-7.1949021519839755,-0.190000831270311
1774021061274961200,5.466961181640625,-6.714902128523588,-7.144395953583717,-0.19512644892204553
1774021061285039000,5.4770390625,-6.766775523623823,-7.0950897786229845,-0.2020824786050245
1774021061295117000,5.487116943359375,-6.8168743102669715,-7.046742804083228,-0.20982797816526144
1774021061305195300,5.4971953125,-6.865444572168588,-6.999206561404466,-0.21716906164307145
1774021061315273200,5.507273193359375,-6.912381679910421,-6.952673358288407,-0.22292362484810874
1774021061325351200,5.51735107421875,-6.957692063233256,-6.907192294573783,-0.22717072436595334
1774021061335429000,5.52742919921875,-7.001539388266205,-6.862648803970218,-0.22998079508431254
1774021061345507000,5.537507080078125,-7.043293540412187,-6.819750157964229,-0.2311238459059037
1774021061355585300,5.547585205078125,-7.082569319745898,-6.778949361020326,-0.2311919061734341
1774021061365663200,5.557663330078125,-7.1189143063247196,-6.740786511364579,-0.23074078313875943
1774021061375741200,5.5677412109375,-7.152523730459809,-6.705129507049918,-0.23029042728906496
1774021061385819100,5.577819091796875,-7.183719079190492,-6.671719404879212,-0.2296364934249781
1774021061395897000,5.58789697265625,-7.212804888421297,-6.640320642530917,-0.22797604939946903
1774021061405975300,5.597975341796875,-7.240452773803472,-6.610250498437881,-0.225427698357217
1774021061416053200,5.60805322265625,-7.266898297658562,-6.581302051851153,-0.22146228359127415
1774021061426131200,5.618131103515625,-7.292302203506231,-6.553342031779885,-0.21546254998613149
1774021061436209200,5.628209228515625,-7.316997084301709,-6.525987576386332,-0.2083921549421735
1774021061446287000,5.638287109375,-7.341358203098178,-6.4988225060850375,-0.20038044219380244
1774021061456365300,5.648365234375,-7.365176301059126,-6.472066601106524,-0.19214697645353152
1774021061466443300,5.658443359375,-7.387887899082899,-6.44635699031055,-0.18433699682233853
1774021061476521200,5.668521240234375,-7.408825473171472,-6.422492715120315,-0.17683341625919566
1774021061486599200,5.67859912109375,-7.4278867319941515,-6.400653223755955,-0.16888587305452674
1774021061496676000,5.688676025390625,-7.445221313154697,-6.380709336879849,-0.16005053243096917
1774021061506754000,5.698754150390625,-7.46123604388833,-6.362203958374262,-0.15065867216950282
1774021061516832300,5.708832275390625,-7.476579158970713,-6.344382470479607,-0.14128919726978056
1774021061526910200,5.71891015625,-7.491981895285845,-6.326368674883246,-0.13286321376524865
1774021061536988200,5.72898828125,-7.507367095944285,-6.3082607712626455,-0.1251954738826491
1774021061547066000,5.739066162109375,-7.522489846274256,-6.290354527693987,-0.11817715608580037
1774021061557144000,5.74914404296875,-7.537503291010856,-6.272464066216349,-0.11234369155880994
1774021061567222300,5.75922216796875,-7.552980261605978,-6.253881530821323,-0.10881228429595939
1774021061577300200,5.76930029296875,-7.568627912592888,-6.234969909602404,-0.10683361376728862
1774021061587378200,5.779378173828125,-7.584012528729438,-6.216261702001095,-0.10599511711653321
1774021061597456100,5.7894560546875,-7.599158659934997,-6.197724174791574,-0.10673384318724274
1774021061607534000,5.7995341796875,-7.614701096981763,-6.178565885335207,-0.10971295946273021
1774021061617612300,5.8096123046875,-7.632122771903872,-6.156939159938693,-0.11484465066222474
1774021061627690200,5.819690185546875,-7.652844657415151,-6.131334178560972,-0.10535558623713441
1774021061637768200,5.829768310546875,-7.673446715939044,-6.106313134551048,-0.039199015169916675
1774021061647846100,5.83984619140625,-7.68634126882553,-6.089612175118923,0.08468615243230014
1774021061657924000,5.849924072265625,-7.684298364821076,-6.088368897059559,0.2317348174110986
1774021061668002000,5.860001953125,-7.666758031955361,-6.1034431320726865,0.37307021930962797
1774021061678080300,5.870080322265625,-7.638190693640708,-6.1308484408706425,0.4910394865320995
1774021061688158200,5.880158203125,-7.606223776015639,-6.163365393593907,0.573301115231216
1774021061698236200,5.890236083984375,-7.576727047896385,-6.195780639508366,0.6131039141137152
1774021061708314000,5.900314208984375,-7.553522113397717,-6.223872761526703,0.614897008075565
1774021061718392000,5.91039208984375,-7.541056599578261,-6.24144758118391,0.5892204958315939
1774021061728470300,5.92047021484375,-7.541627677464485,-6.244617443391681,0.5468013769708574
1774021061738548200,5.93054833984375,-7.55435681065619,-6.233368904146552,0.49718650138713416
1774021061748626200,5.940626220703125,-7.576350615799426,-6.210274444285035,0.44920445116963237
1774021061758704000,5.9507041015625,-7.603067942333221,-6.180302499869465,0.4093939073720947
1774021061768782000,5.960781982421875,-7.630209047237038,-6.14862608962357,0.38038054232299323
1774021061778860300,5.9708603515625,-7.654307715705037,-6.119757138013839,0.36128603881783783
1774021061788938200,5.980938232421875,-7.6737991826385255,-6.09616408098042,0.34637068416085093
1774021061799016200,5.99101611328125,-7.688557191309332,-6.078588676801323,0.3274688171509653
1774021061809094100,6.00109423828125,-7.699463200727105,-6.066244743534922,0.2988707914371043
1774021061819172000,6.011172119140625,-7.70737996520102,-6.057903031647205,0.26170382095091044
1774021061829250300,6.021250244140625,-7.713061517968773,-6.052286360809207,0.22114141760645434
1774021061839328300,6.031328369140625,-7.7174775808453555,-6.047986033266782,0.18108091763583942
1774021061849406200,6.04140625,-7.721401476290821,-6.0439984249353405,0.14293680008002557
1774021061859484200,6.051484130859375,-7.724868860140442,-6.04030716920197,0.10714041469413786
1774021061869562000,6.06156201171875,-7.727181813257932,-6.037849839177728,0.07364474856525194
1774021061879640300,6.071640380859375,-7.727186489433049,-6.038147945341468,0.04177082015299238
1774021061889718300,6.08171826171875,-7.723644286781549,-6.042812430021167,0.011298732779116834
1774021061899796200,6.091796142578125,-7.71551066468656,-6.053177756690979,-0.01785540843056515
1774021061909874200,6.101874267578125,-7.70269911390841,-6.069321082240343,-0.046411686495086174
1774021061919952100,6.1119521484375,-7.686485645732283,-6.089563659802079,-0.07433038360869977
1774021061930030300,6.1220302734375,-7.669009610274434,-6.111204998245835,-0.09923545025587081
1774021061940108300,6.1321083984375,-7.653636684575677,-6.130072195801138,-0.12015647506844251
1774021061950186200,6.142186279296875,-7.642998386183381,-6.1430059116542335,-0.1357781056981068
1774021061960264200,6.15226416015625,-7.638435023790597,-6.148462423494458,-0.14526602847888134
1774021061970341000,6.162341064453125,-7.6400278459399935,-6.146404321920872,-0.1485668601225596
1774021061980419000,6.172419189453125,-7.646457002204656,-6.138448394480347,-0.1467579018712975
1774021061990497300,6.182497314453125,-7.655890016460418,-6.126795366087555,-0.14181952302050777
1774021062000575200,6.1925751953125,-7.666529483896493,-6.113592185643315,-0.13674655800461769
1774021062010650000,6.202650146484375,-7.676511948728561,-6.101137193217873,-0.13293460763418116
1774021062020728000,6.21272802734375,-7.684835540437698,-6.090696463224291,-0.13077068933225236
1774021062030806000,6.222805908203125,-7.690989386892318,-6.082938688704371,-0.13010517462822607
1774021062040884200,6.23288427734375,-7.695273932343721,-6.077527769571542,-0.12961865148660726
1774021062050962200,6.242962158203125,-7.698516859787702,-6.073446053215861,-0.12835736284651794
1774021062061040000,6.2530400390625,-7.7012617745816705,-6.070023677551746,-0.1255636039421428
1774021062071118000,6.2631181640625,-7.70370624512434,-6.066998776772618,-0.12176318874587304
1774021062081196000,6.273196044921875,-7.705931519958376,-6.0642509393692015,-0.11777598227323033
1774021062091274200,6.283274169921875,-7.707626633438467,-6.062158935526013,-0.11450573756406084
1774021062101352200,6.293352294921875,-7.708452562868595,-6.061147128134966,-0.11244997407803312
1774021062111430100,6.30343017578125,-7.708403463029861,-6.061228376677632,-0.11141762622245587
1774021062121508000,6.313508056640625,-7.7078429065376515,-6.061943831470608,-0.11124677230073138
1774021062131586000,6.3235859375,-7.70708185903728,-6.062908877110481,-0.11138972443537785
1774021062141664300,6.333664306640625,-7.706516626369953,-6.0636307616442435,-0.11124210525876842
1774021062151742200,6.3437421875,-7.7061887095898385,-6.06404811027348,-0.11117391712707467
1774021062161820200,6.353820068359375,-7.706081157562136,-6.0641772896111,-0.11158027857141568
1774021062171898000,6.363898193359375,-7.706100446784496,-6.064146309950948,-0.11193019712078385
1774021062181976000,6.37397607421875,-7.7062892473548645,-6.063908994063735,-0.11178207562067545
1774021062192054300,6.38405419921875,-7.706236055862903,-6.063983812865614,-0.1114231791804079
1774021062202132200,6.39413232421875,-7.70543935252726,-6.065002634519338,-0.11102565862964837
1774021062212210200,6.404210205078125,-7.703672927376627,-6.067248367619514,-0.1109204446895048
1774021062222288100,6.4142880859375,-7.701083495405316,-6.0705339651614425,-0.1109564567178022
1774021062232366000,6.424365966796875,-7.697928830766678,-6.074530341321229,-0.11119321548258886
1774021062242444300,6.4344443359375,-7.694833787360787,-6.078439623719453,-0.11179737365450709
1774021062252522200,6.444522216796875,-7.691915854087472,-6.082111590230465,-0.11285038983877747
1774021062262600200,6.45460009765625,-7.689314731678366,-6.085376144984364,-0.1141261271293275
1774021062272678100,6.46467822265625,-7.687347815519571,-6.087829967877268,-0.11575315294242464
1774021062282756000,6.474756103515625,-7.686096938675641,-6.089378950884938,-0.11729775203592144
1774021062292834300,6.484834228515625,-7.685385575535893,-6.09025222658813,-0.11857689599310979
1774021062302912300,6.494912353515625,-7.685100913375615,-6.09058715763092,-0.11978869206882081
1774021062312990200,6.504990234375,-7.685175732177496,-6.090466746121645,-0.1211323069638107
1774021062323068200,6.515068115234375,-7.6855872355878345,-6.089919633632898,-0.12251404364579356
1774021062333145000,6.52514501953125,-7.685940871331095,-6.0894444173365825,-0.1239481681021396
1774021062343223000,6.53522314453125,-7.685918659499287,-6.089452600643038,-0.1249277537240181
1774021062353301000,6.545301025390625,-7.68539200527668,-6.090100835418701,-0.1257281651203986
1774021062363379200,6.555379150390625,-7.684442741727828,-6.091282738679647,-0.1264661788050551
1774021062373457200,6.56545703125,-7.683375989279151,-6.0926049271941185,-0.1275635364545509
1774021062383535000,6.57553515625,-7.682265397688746,-6.093974461981654,-0.12907082661180755
1774021062393613000,6.585613037109375,-7.681394460073113,-6.095037122777104,-0.1307531628087163
1774021062403691000,6.59569091796875,-7.681129671657085,-6.09534224320352,-0.13205559630994684
1774021062413769200,6.605769287109375,-7.681561048811673,-6.094784024798869,-0.1327032830963377
1774021062423847200,6.61584716796875,-7.68225779890418,-6.093903150311112,-0.13281750232684425
1774021062433925000,6.625925048828125,-7.682803157827258,-6.093213999003171,-0.13291783002931623
1774021062444003000,6.636003173828125,-7.683074375984072,-6.092866208478808,-0.13316842552321032
1774021062454081000,6.6460810546875,-7.682954548996687,-6.093019353213906,-0.13305964051964692
1774021062464159200,6.6561591796875,-7.682782699561119,-6.093242640575766,-0.13275925106727518
1774021062474237200,6.6662373046875,-7.682734184244275,-6.093326227205991,-0.13173640169240533
1774021062484315100,6.676315185546875,-7.682952795431017,-6.093083066099882,-0.13021652604821138
1774021062494393000,6.68639306640625,-7.683318706133961,-6.092655196076631,-0.12863629851890726
1774021062504471000,6.696470947265625,-7.683700398927926,-6.092199269002676,-0.12746444172794
1774021062514549200,6.70654931640625,-7.683848867487907,-6.092033849307894,-0.1264100647036452
1774021062524627200,6.716627197265625,-7.683865818622708,-6.092037356439232,-0.12520742004876956
1774021062534705200,6.726705078125,-7.683795675995945,-6.092160690557956,-0.12350398626490496
1774021062544783000,6.736783203125,-7.683606875425577,-6.092437753933668,-0.12156277993610128
1774021062554861000,6.746861083984375,-7.683215245759487,-6.092981359291076,-0.11898896565902978
1774021062564939300,6.756939208984375,-7.682553566980362,-6.093872170650958,-0.11605377072365954
1774021062575017200,6.767017333984375,-7.681514287060499,-6.095237029263377,-0.11317377657424658
1774021062585095200,6.77709521484375,-7.680257564997673,-6.096864922726154,-0.11075518025835045
1774021062595173000,6.787173095703125,-7.67893771457076,-6.098557698118686,-0.10902210938804782
1774021062605251000,6.7972509765625,-7.677571102392673,-6.100294312652945,-0.10811178047694266
1774021062615329300,6.807329345703125,-7.6761752641201015,-6.102065413978695,-0.107304044290632
1774021062625407200,6.8174072265625,-7.674744939056039,-6.103892044883966,-0.10575064996932633
1774021062635485200,6.827485107421875,-7.673219921445846,-6.105836164689063,-0.10414434728384948
1774021062645563100,6.837563232421875,-7.671736404889821,-6.107711310911178,-0.10349967443845234
1774021062655640000,6.84764013671875,-7.670312509566545,-6.109485334846377,-0.10434385191132314
1774021062665718000,6.857718017578125,-7.669099042123555,-6.110969435924291,-0.10662726840707473
1774021062675796200,6.867796142578125,-7.668154454749822,-6.112102239346504,-0.10953210473679936
1774021062685874200,6.877874267578125,-7.667135633096098,-6.113332657924294,-0.11217468253429978
1774021062695952100,6.8879521484375,-7.6658058457970615,-6.11496288947463,-0.11416386532383038
1774021062706030000,6.898030029296875,-7.663950573319196,-6.117249539107084,-0.11619854035605676
1774021062716108000,6.90810791015625,-7.661261772626638,-6.120569038918614,-0.1187258212108165
1774021062726186200,6.918186279296875,-7.657590390637517,-6.125106097826361,-0.12154028497650288
1774021062736264200,6.92826416015625,-7.653281295266747,-6.130434014850855,-0.12428036833172663
1774021062746342100,6.938342041015625,-7.648807364723086,-6.135956577664613,-0.12715842625238
1774021062756420000,6.948420166015625,-7.644471965867281,-6.141304368433356,-0.1297089509854093
1774021062766498000,6.958498046875,-7.640693031850457,-6.1459513174563645,-0.13223836899832822
1774021062776576300,6.968576171875,-7.6379241516590115,-6.149319917106628,-0.13553218637933023
1774021062786654200,6.978654296875,-7.635996982988715,-6.151624686917662,-0.13946225583725608
1774021062796732200,6.988732177734375,-7.634050525096058,-6.153940562644601,-0.14381200287882237
1774021062806810000,6.99881005859375,-7.631238974806666,-6.15731676107943,-0.1483929922598414
1774021062816888000,7.00888818359375,-7.627237922471761,-6.162175891548395,-0.15236342112761922
1774021062826966000,7.018966064453125,-7.6232123202174895,-6.167084706377983,-0.15519361218539998
1774021062837044200,7.029044189453125,-7.619712203142046,-6.171378604179621,-0.15638813746590166
1774021062847122200,7.0391220703125,-7.617211033976077,-6.174470724976063,-0.15616057578772305
1774021062857200000,7.0492001953125,-7.615424735081195,-6.176698337897658,-0.1552063072701916
1774021062867278000,7.059278076171875,-7.614287840005755,-6.178143860530853,-0.1534518648182973
1774021062877356000,7.06935595703125,-7.613910823386907,-6.1786757754504675,-0.15074161034575662
1774021062887434200,7.079434326171875,-7.614389546814561,-6.178195882979035,-0.14614066502209752
1774021062897512200,7.08951220703125,-7.6153259508818385,-6.177208040985465,-0.1389005394344218
1774021062907590100,7.099590087890625,-7.616352955842018,-6.176136612361669,-0.12995534522822125
1774021062917668000,7.109668212890625,-7.617990201655029,-6.174346221813559,-0.11857951720845884
1774021062927746000,7.11974609375,-7.620248209714889,-6.171838622906804,-0.10300094026923179
1774021062937824300,7.12982421875,-7.622700863564014,-6.169097799766063,-0.08400049912254326
1774021062947902200,7.139902099609375,-7.6242808262318364,-6.167382812541723,-0.06413188313946593
1774021062957979100,7.149979248046875,-7.623797426629066,-6.168156135001778,-0.04406893189437687
1774021062968057000,7.16005712890625,-7.620947297894954,-6.171795952808856,-0.022054141045326832
1774021062978135000,7.170135009765625,-7.6159601571321485,-6.177987208664417,0.0030784861383785027
1774021062988213000,7.180212890625,-7.609248092272877,-6.186172853207588,0.031523071431263816
1774021062998291200,7.190291259765625,-7.600921577954292,-6.196159409692883,0.0631165594839258
1774021063008369000,7.200368896484375,-7.591003995051979,-6.207860368880629,0.09757026612316258
1774021063018446800,7.21044677734375,-7.579423447373509,-6.221292681905627,0.1350260086891707
1774021063028525000,7.220525146484375,-7.566138433864713,-6.236423615542054,0.17595157365705816
1774021063038603000,7.23060302734375,-7.551290993344783,-6.252974352848529,0.22067801961209624
1774021063048681000,7.240680908203125,-7.534707522812485,-6.271031987586617,0.26966805956205353
1774021063058759000,7.250759033203125,-7.516531814652681,-6.290306596899033,0.3227680190488696
1774021063068836900,7.2608369140625,-7.497130948612093,-6.310152284097671,0.3813091649426147
1774021063078914800,7.270914794921875,-7.476973126724362,-6.329802156463265,0.44593971375264224
1774021063088993000,7.280992919921875,-7.4556626276701685,-6.349460212135314,0.5175295801812783
1774021063099071000,7.291071044921875,-7.432818343177438,-6.369394162139296,0.5953299916878342
1774021063109149000,7.30114892578125,-7.408156780129671,-6.389654859879612,0.6796404792081564
1774021063119227000,7.311226806640625,-7.3818486189186565,-6.409776441410184,0.7703632449235767
1774021063129304800,7.321304931640625,-7.353679924532771,-6.429762413862347,0.8671399769157171
1774021063139383000,7.331383056640625,-7.323062667950987,-6.450127741020918,0.9690176122434436
1774021063149461000,7.3414609375,-7.2894134963274,-6.471647498911619,1.0736031913556159
1774021063159539000,7.3515390625,-7.25198129903376,-6.495450983825325,1.1782480263743549
1774021063169617000,7.361616943359375,-7.211085225021839,-6.521549886199832,1.2806354378551243
1774021063179694800,7.37169482421875,-7.167269464170932,-6.54939709354639,1.3805929187752306
1774021063189773000,7.38177294921875,-7.120744444361328,-6.578592208370566,1.4790231901280582
1774021063199851000,7.39185107421875,-7.071736960086226,-6.609070933264493,1.5751519065402446
1774021063209928000,7.401927978515625,-7.020277991005778,-6.641331865400075,1.666969481755048
1774021063220006000,7.412005859375,-6.967488650104403,-6.674888682565093,1.7522408501967788
1774021063230083800,7.422083740234375,-6.914779388701915,-6.708955202817917,1.8292412338994442
1774021063240161800,7.432161865234375,-6.8633174970120185,-6.742701989597082,1.897691085269302
1774021063250240000,7.442239990234375,-6.8132222175002095,-6.775679545569419,1.9597336999453603
1774021063260318000,7.45231787109375,-6.764101920500397,-6.807876764819025,2.017452606203407
1774021063270396000,7.46239599609375,-6.715497756329178,-6.839415227898955,2.072409792663157
1774021063280473900,7.472473876953125,-6.667206895890832,-6.870246419492363,2.125666020423919
1774021063290551800,7.4825517578125,-6.6191942678719755,-6.900393720474839,2.177433324801177
1774021063300630000,7.492630126953125,-6.571906446996331,-6.929613969740271,2.227302978863567
1774021063310708000,7.5027080078125,-6.525718111795187,-6.957858651971817,2.2745541209906337
1774021063320786000,7.512785888671875,-6.480560873207449,-6.985034828189015,2.3199159422397613
1774021063330863900,7.52286376953125,-6.435866575956344,-7.011260571813583,2.36479027223289
1774021063340941800,7.53294189453125,-6.390774803820252,-7.037087671509385,2.409935381991416
1774021063351020000,7.54302001953125,-6.344906786614656,-7.062659919661283,2.455888301001489
1774021063361098000,7.553097900390625,-6.298635449305176,-7.087733570641279,2.5023221353963017
1774021063371176000,7.563176025390625,-6.252662802681327,-7.111720010906457,2.549125095364451
1774021063381254000,7.57325390625,-6.207518423575163,-7.134102523106336,2.5964754600822926
1774021063391331800,7.583331787109375,-6.162614282965659,-7.155273905950784,2.6447362176433202
1774021063401410000,7.59341015625,-6.117078274193406,-7.176198620557785,2.6933102789372203
1774021063411488000,7.603488037109375,-6.070660221889614,-7.197192893269658,2.74187586466372
1774021063421566000,7.61356591796875,-6.023285307252407,-7.218409868821501,2.7901562037080523
1774021063431644000,7.623643798828125,-5.974697509694099,-7.240156421205401,2.837871894606948
1774021063441721900,7.633721923828125,-5.9249675563633435,-7.262641224735975,2.8843022218704224
1774021063451799000,7.643799072265625,-5.874087848475575,-7.28588766028881,2.929389902353287
1774021063461877000,7.653876953125,-5.821736314469575,-7.309978729972243,2.973549069814384
1774021063471955000,7.663954833984375,-5.767798972576856,-7.334814480543137,3.0171792449653148
1774021063482033000,7.674032958984375,-5.712406171178817,-7.3601786389023065,3.06048442594558
1774021063492110800,7.68411083984375,-5.656430016934872,-7.385645088592171,3.1028117018043995
1774021063502188800,7.694188720703125,-5.60117224009335,-7.41065678025186,3.1431571561962364
1774021063512267000,7.70426708984375,-5.547401486939192,-7.434850141265988,3.1811528325915335
1774021063522345000,7.714344970703125,-5.495496527656912,-7.45776866003871,3.2173899748817085
1774021063532423000,7.7244228515625,-5.445882309660315,-7.478857040774821,3.2526065419524905
1774021063542500900,7.7345009765625,-5.39814849858284,-7.4978054868727915,3.2883588233351704
1774021063552578800,7.744578857421875,-5.352354131135344,-7.5143077088624235,3.3253383084252475
1774021063562656800,7.75465673828125,-5.30812511330843,-7.528723772227764,3.363409095883369
1774021063572735000,7.76473486328125,-5.264529132688045,-7.542063146272302,3.401824751256406
1774021063582813000,7.77481298828125,-5.220250430500507,-7.555517086607217,3.4399911080434915
1774021063592891000,7.784890869140625,-5.175315894752741,-7.56979812541604,3.4762978084385394
1774021063602968800,7.79496875,-5.129807943031191,-7.584916199570894,3.510627655802667
1774021063613046800,7.805046875,-5.084106514564156,-7.600096817567944,3.544119006516039
1774021063623125000,7.815125,-5.0389118665754795,-7.614640306705236,3.577291792799532
1774021063633203000,7.825202880859375,-4.99577239755094,-7.628015336585045,3.609157588137686
1774021063643281000,7.835281005859375,-4.954299984955787,-7.640581388169527,3.639619069635868
1774021063653358800,7.84535888671875,-4.913030985978246,-7.653828407755493,3.667617668151855
1774021063663436000,7.85543603515625,-4.872157123798131,-7.668377742111683,3.6916739587828515
1774021063673514000,7.865513916015625,-4.832187809242308,-7.68397337065041,3.711723644120991
1774021063683592200,7.87559228515625,-4.793852525629103,-7.69964031085968,3.728928169161081
1774021063693670100,7.885670166015625,-4.756784193211794,-7.715397267439961,3.7438007441222667
1774021063703748000,7.895748046875,-4.719880403706431,-7.731707766249776,3.756834413218498
1774021063713826000,7.905825927734375,-4.682329256208241,-7.749328763136267,3.767501937705278
1774021063723904000,7.915904052734375,-4.644044825999439,-7.768796849194168,3.774786834016442
1774021063733982200,7.925982177734375,-4.605058092740178,-7.789720394757389,3.779426768776774
1774021063744060200,7.93606005859375,-4.564653601637483,-7.811808307924866,3.7828520670503374
1774021063754138000,7.94613818359375,-4.523170083126425,-7.834497109594941,3.7857577253639696
1774021063764216000,7.956216064453125,-4.479895005023479,-7.857865710222721,3.7887826261430977
1774021063774294000,7.9662939453125,-4.435399737475812,-7.88181357204318,3.791387840205431
1774021063784372000,7.9763720703125,-4.3904692933812735,-7.906419605511426,3.792454008132219
1774021063794450000,7.986449951171875,-4.345876118417084,-7.931098119693994,3.792284204523265
1774021063804527900,7.99652783203125,-4.301330874247848,-7.955361623334884,3.7922497177317736
1774021063814605800,8.006605712890625,-4.2574128220662475,-7.978990336203575,3.7921673001453278
1774021063824684000,8.01668408203125,-4.215157150138914,-8.001569247758388,3.7917984668329354
1774021063834762000,8.026761962890625,-4.174849689669907,-8.023283066916465,3.790509011544287
1774021063844840000,8.03683984375,-4.136386688023805,-8.044540374478697,3.787618550799787
1774021063854918000,8.04691796875,-4.09952556861639,-8.065210237541795,3.7837341105818747
1774021063864995800,8.056995849609375,-4.062715302613378,-8.084916808530688,3.781381994497776
1774021063875073000,8.067072998046875,-4.025392703174054,-8.10335672058463,3.7818259388729927
1774021063885151000,8.07715087890625,-3.9876393111020323,-8.120286812597513,3.785506965473294
1774021063895229200,8.087229248046874,-3.9506598260119556,-8.135459247288107,3.791698221328854
1774021063905307100,8.09730712890625,-3.915639658296108,-8.149093804886936,3.798741125577688
1774021063915385000,8.107385009765625,-3.8826173863992093,-8.161797219115495,3.805355867542326
1774021063925463000,8.117463134765625,-3.8505665898829697,-8.174137645250559,3.8114272964105007
1774021063935541000,8.127541015625,-3.819328571054339,-8.185964861166477,3.8174738830983634
1774021063945619200,8.137619140625,-3.789698864205181,-8.196633554697037,3.824102069066465
1774021063955697200,8.147697265625,-3.763192257812619,-8.205773723486065,3.830670341540873
1774021063965775000,8.157775146484376,-3.7415959275543687,-8.21302004135251,3.8362943189024925
1774021063975853000,8.16785302734375,-3.7260090668439863,-8.218076155698299,3.8406320558458567
1774021063985931000,8.177930908203125,-3.7167809275105594,-8.220624086615443,3.844120774744451
1774021063996009200,8.18800927734375,-3.713982528963685,-8.2204224265635,3.8472538120731707
1774021064006087200,8.198087158203125,-3.7171032913327213,-8.217380574649573,3.8507390238404273
1774021064016165400,8.208165283203124,-3.7257811033070087,-8.211769164508581,3.8543218507632613
1774021064026243300,8.218243408203126,-3.738663673494756,-8.204244614222645,3.8578690218508243
1774021064036321300,8.2283212890625,-3.75421984680593,-8.195490229880809,3.8613656317949294
1774021064046399200,8.238399169921875,-3.770607502505183,-8.186285179162025,3.864926831407845
1774021064056477200,8.248477294921875,-3.7866155112370845,-8.177145594894885,3.8686204252287744
1774021064066554400,8.258554443359374,-3.8016137584045526,-8.168581764689087,3.8719992540121075
1774021064076632600,8.268632568359376,-3.8152190899088976,-8.160906992277502,3.8748008674293755
1774021064086710500,8.27871044921875,-3.8275606850877404,-8.154498294278978,3.876122179161012
1774021064096788500,8.28878857421875,-3.8389474637597796,-8.149280267369747,3.875836932478845
1774021064106866400,8.298866455078125,-3.849590438327193,-8.144803998738526,3.874686008878052
1774021064116944400,8.3089443359375,-3.859216052545607,-8.140981810101867,3.873144040133059
1774021064127022600,8.319022705078124,-3.8673537662938235,-8.137877414345741,3.8715506334617733
1774021064137100500,8.3291005859375,-3.8745562450185416,-8.135552770790458,3.8692359267786145
1774021064147178500,8.339178466796875,-3.8809678656265136,-8.134293710640073,3.8654534856304523
1774021064157256400,8.34925634765625,-3.887432093204558,-8.133966962903738,3.859641292220354
1774021064167334400,8.35933447265625,-3.894505977113545,-8.134294879683852,3.8518110369861125
1774021064177412600,8.36941259765625,-3.9020229286149144,-8.135171077996493,3.8423438281998035
1774021064187490600,8.379490478515624,-3.9098426624551412,-8.136309142115712,3.8319682723969217
1774021064197568500,8.389568603515626,-3.918338688121736,-8.137261328274011,3.8212542784199117
1774021064207646500,8.399646484375,-3.927987683215737,-8.137843512076138,3.81009487876296
1774021064217724400,8.409724365234375,-3.939347573880851,-8.137838251379131,3.798355341130495
1774021064227802600,8.419802734375,-3.9526927931442852,-8.13728237106204,3.7856609869912266
1774021064237880600,8.429880615234374,-3.967232775150239,-8.13664699576795,3.7717940819412465
1774021064247958500,8.43995849609375,-3.9820547889679667,-8.136212111482024,3.757084004065394
1774021064258035500,8.450035400390625,-3.996821857728064,-8.13605078344047,3.741721892021596
1774021064268113400,8.460113525390625,-4.011118678627908,-8.136374024045466,3.72568465719521
1774021064278191400,8.47019140625,-4.024693614993989,-8.137446037191152,3.708663672028482
1774021064288269600,8.48026953125,-4.03691801353395,-8.13953921007812,3.6907401850640773
1774021064298347500,8.490347412109376,-4.048314436817169,-8.142401029250026,3.6719007522985336
1774021064308425500,8.500425537109376,-4.059003588613868,-8.145660907828807,3.65281932747066
1774021064318503400,8.51050341796875,-4.069289420306682,-8.149289035198091,3.6332305376425382
1774021064328581400,8.520581298828125,-4.079706184902787,-8.153232804387807,3.6126425076439976
1774021064338659600,8.53065966796875,-4.0904140413999555,-8.157322119528054,3.591240238653123
1774021064348737500,8.540737548828124,-4.1018487508669494,-8.161278748199344,3.5691377124384043
1774021064358815500,8.5508154296875,-4.114922167451679,-8.164724504739045,3.5461332689478993
1774021064368893400,8.5608935546875,-4.1296851445585485,-8.167637177315354,3.5221842380836605
1774021064378971400,8.570971435546875,-4.146031006942689,-8.17006995742023,3.497252041400969
1774021064389049600,8.581049560546875,-4.1635429904967545,-8.17219469448924,3.4713866555213926
1774021064399127600,8.59112744140625,-4.181488981553912,-8.174174470129609,3.445053652130067
1774021064409205500,8.60120556640625,-4.199557722207904,-8.176183471864462,3.4182027623444795
1774021064419283500,8.611283447265626,-4.218423166197538,-8.177861049687863,3.3908518140822648
1774021064429361400,8.621361328125,-4.238764527958631,-8.178553123605251,3.3637083710908886
1774021064439439400,8.631439453125,-4.26102633638829,-8.177874493691325,3.3371272381573913
1774021064449516300,8.641516357421875,-4.285025928395986,-8.175911669185757,3.3111011087581512
1774021064459594500,8.651594482421874,-4.310115361467004,-8.172645360866188,3.2865137799903748
1774021064469672400,8.66167236328125,-4.335491502524912,-8.168403485512734,3.2636008141756054
1774021064479750400,8.67175048828125,-4.360596133165061,-8.163620927411317,3.242046277232468
1774021064489828400,8.681828369140625,-4.38568322814852,-8.15831989839375,3.2214871810674666
1774021064499906300,8.69190625,-4.411017283630371,-8.152682769289612,3.201105487295985
1774021064509984500,8.701984619140624,-4.436548615249992,-8.146790788641571,3.1807576957941053
1774021064520062500,8.7120625,-4.462575036910176,-8.140614145833254,3.1600936779499054
1774021064530140400,8.722140380859376,-4.488894011776149,-8.13411309337616,3.1394957110792396
1774021064540218400,8.73221826171875,-4.515582988998293,-8.127372386944293,3.11860665230751
1774021064550296300,8.74229638671875,-4.5429032498613,-8.120584918761253,3.0965307218387723
1774021064560374500,8.75237451171875,-4.571515596361458,-8.113805049362778,3.072099168154597
1774021064570452500,8.762452392578124,-4.6017838933750985,-8.106928149330615,3.0449431579425927
1774021064580530400,8.772530517578126,-4.633173303373158,-8.100159385848045,3.01521174428463
1774021064590608400,8.7826083984375,-4.665234036761522,-8.093633783471583,2.9831299681082366
1774021064600686300,8.792686279296875,-4.69755868178308,-8.087470000144839,2.9489237471237777
1774021064610764500,8.8027646484375,-4.729719368414581,-8.08170427622497,2.9131062915503976
1774021064620841500,8.812841552734374,-4.761561198355257,-8.076509630191326,2.8753981999248266
1774021064630919400,8.82291943359375,-4.7936292382672425,-8.071966726064682,2.8345822054117917
1774021064640997400,8.832997314453126,-4.826415947842598,-8.067876826402545,2.790241251643002
1774021064651075300,8.843075439453125,-4.860026833282411,-8.064309489309787,2.741795785164833
1774021064661153300,8.8531533203125,-4.894417470923066,-8.061107478398084,2.68953514431268
1774021064671231500,8.8632314453125,-4.92997510651648,-8.058233384266495,2.6326059271275994
1774021064681309400,8.873309326171874,-4.967389183631539,-8.055686037871242,2.5693086362153292
1774021064691387400,8.883387451171876,-5.007091079422831,-8.052164878007769,2.502409813679755
1774021064701465300,8.89346533203125,-5.048226222887635,-8.047107010096312,2.4351310519158837
1774021064711543300,8.903543212890625,-5.090920286232233,-8.040667916959524,2.366553190252185
1774021064721621500,8.91362158203125,-5.135950683569908,-8.032921832877397,2.294462644292414
1774021064731699500,8.923699462890625,-5.182708927613496,-8.024351572930813,2.218040206608176
1774021064741777400,8.93377734375,-5.230474302873015,-8.015287976509333,2.137213104224205
1774021064751855400,8.94385546875,-5.279181927418708,-8.005645703417063,2.051890005595237
1774021064761933300,8.953933349609375,-5.328962149631977,-7.995088653567433,1.9624267384216187
1774021064772011500,8.964011474609375,-5.379837765866518,-7.983311122012138,1.8693528795354066
1774021064782089500,8.97408935546875,-5.4313510954827064,-7.970109695133567,1.7743072821848094
1774021064792166400,8.98416650390625,-5.482255353289842,-7.955832747977971,1.6792817047089337
1774021064802244400,8.994244384765626,-5.531408968037367,-7.941153649762272,1.5849256970576941
1774021064812322300,9.004322265625,-5.578903709661961,-7.9262021643459795,1.4904836185581982
1774021064822400300,9.014400146484375,-5.625142898267507,-7.910822224384546,1.395367732450366
1774021064832478500,9.024478515625,-5.670165112298727,-7.894964730039239,1.2996705393232404
1774021064842556400,9.034556396484374,-5.713785642838478,-7.878785748654604,1.2032339260056615
1774021064852634400,9.04463427734375,-5.755840823757648,-7.862437255921959,1.1057884279064834
1774021064862712300,9.05471240234375,-5.796131917613744,-7.84609811553955,1.006966599952802
1774021064872790300,9.064790283203125,-5.834756539562345,-7.829625119644403,0.9071781919892877
1774021064882868500,9.074868408203125,-5.872142559626698,-7.81267690745294,0.8064747880727052
1774021064892946400,9.084946533203125,-5.9084039595752955,-7.79516463163793,0.704672848329693
1774021064903024400,9.0950244140625,-5.943509759747982,-7.777088292199373,0.6016487829132006
1774021064913102300,9.105102294921876,-5.977654021412134,-7.758242137432098,0.49772086399216203
1774021064923180300,9.11518017578125,-6.01084025169909,-7.738574729409813,0.39324163133129475
1774021064933258200,9.12525830078125,-6.04265694719851,-7.718363716030121,0.2890494354508817
1774021064943336400,9.13533642578125,-6.072513740801811,-7.698094250461459,0.1852273880571127
1774021064953414400,9.145414306640625,-6.099777010780572,-7.678311107105016,0.08153991769528947
1774021064963491300,9.1554912109375,-6.124051035815477,-7.659364999094605,-0.022519055143336297
1774021064973569300,9.1655693359375,-6.145141754639148,-7.641416085427999,-0.12798751575397327
1774021064983647200,9.175647216796875,-6.162988961496949,-7.624457351842522,-0.2358109077435918
1774021064993725200,9.18572509765625,-6.17777561174035,-7.6082672645419835,-0.3460518274700269
1774021065003803400,9.195803466796875,-6.189938927742839,-7.592422629678249,-0.4584223979026079
1774021065013880600,9.205880615234374,-6.2000757063537835,-7.576405560857057,-0.5722969431573525
1774021065023958500,9.21595849609375,-6.208598620027304,-7.559869436597824,-0.6870693140346557
1774021065034036500,9.226036376953125,-6.215034790554642,-7.543275444671512,-0.8017038473438471
1774021065044114400,9.236114501953125,-6.21932868835628,-7.526840442699194,-0.9148826288867741
1774021065054192400,9.2461923828125,-6.222140238645673,-7.510311917224526,-1.0249746964607387
1774021065064270600,9.2562705078125,-6.224387140789628,-7.493215236473083,-1.1309804445691407
1774021065074348500,9.2663486328125,-6.226919874137639,-7.475009133175015,-1.2329171166077255
1774021065084426500,9.276426513671876,-6.229962310573458,-7.455677825239301,-1.330728379279375
1774021065094504400,9.28650439453125,-6.233069628939032,-7.435924492499232,-1.4234624848172068
1774021065104582400,9.29658251953125,-6.236158827126026,-7.416237795254587,-1.5100120565012096
1774021065114660600,9.30666064453125,-6.239237503919005,-7.396747497364879,-1.590735260119289
1774021065124737500,9.316737548828126,-6.24208120291233,-7.3777768394351,-1.6658986376531422
1774021065134815500,9.3268154296875,-6.245055834808945,-7.359056356874108,-1.7360748744241892
1774021065144893400,9.3368935546875,-6.249235166320204,-7.339686470493674,-1.8017907707855105
1774021065154971400,9.346971435546875,-6.255225931167602,-7.3192521697521205,-1.8630802290067077
1774021065165049300,9.35704931640625,-6.2625856462806455,-7.298115273699164,-1.920398153248429
1774021065175127600,9.36712744140625,-6.2704661703974,-7.276689623832702,-1.9752026333644985
1774021065185205500,9.37720556640625,-6.278435541841388,-7.255146485066414,-2.0284186752453444
1774021065195283500,9.387283447265625,-6.286362827709317,-7.233740124422312,-2.07967291553393
1774021065205361400,9.397361328125,-6.293560045737028,-7.21337771987319,-2.1280684053905308
1774021065215439400,9.407439453125,-6.298788594040274,-7.195151158308982,-2.1738095813460645
1774021065225517600,9.417517578125,-6.300875921708345,-7.17999216762185,-2.2174432636283337
1774021065235595500,9.427595458984374,-6.299239260417223,-7.168155014833808,-2.259982282541692
1774021065245673500,9.437673583984376,-6.293675781071186,-7.159411151885986,-2.3027947115689513
1774021065255751400,9.44775146484375,-6.284271408388018,-7.153532030719518,-2.3463373545669017
1774021065265829400,9.457829345703125,-6.271441737431287,-7.150327097198367,-2.390028027733415
1774021065275907600,9.467907470703125,-6.256054783207178,-7.1496636648535725,-2.431969226884097
1774021065285985500,9.477985595703124,-6.238498083728551,-7.151448210182785,-2.4714997116312385
1774021065296062500,9.4880625,-6.219093126034736,-7.155277413082122,-2.5090362460821867
1774021065306140400,9.498140380859375,-6.198164319774508,-7.160307223942875,-2.5462042394816873
1774021065316218400,9.50821826171875,-6.176089850610494,-7.165681318196654,-2.584436062720418
1774021065326296300,9.51829638671875,-6.153602124470472,-7.170688332703709,-2.6238883676648137
1774021065336374500,9.52837451171875,-6.131587276539206,-7.174597030580044,-2.6644270065411924
1774021065346452500,9.538452392578124,-6.111698334720731,-7.176417816266417,-2.7049139152303336
1774021065356530400,9.548530517578126,-6.095427583399415,-7.175614098668098,-2.7434859302088617
1774021065366608400,9.5586083984375,-6.082946287488937,-7.172245499017834,-2.7797563902467486
1774021065376686300,9.568686279296875,-6.0732286110728975,-7.167187631106376,-2.8138398616343734
1774021065386764500,9.5787646484375,-6.065290219289064,-7.161357025256753,-2.845629376865923
1774021065396842500,9.588842529296874,-6.058662910103798,-7.155079260161519,-2.8753812487900254
1774021065406920400,9.59892041015625,-6.05235416534841,-7.148797987934946,-2.904149954895675
1774021065416998400,9.608998291015626,-6.044844812631607,-7.1430036224424835,-2.933894812557101
1774021065427076400,9.619076416015625,-6.0353059999138114,-7.137138529801368,-2.967612373241782
1774021065437154600,9.629154541015625,-6.0239686133414505,-7.130662611785531,-3.0059686996430157
1774021065447231500,9.6392314453125,-6.0119321385890245,-7.123735442870855,-3.0462212150543926
1774021065457309400,9.649309326171876,-6.000362112304568,-7.116578556853533,-3.085506346738338
1774021065467387400,9.659387451171876,-5.989999708244204,-7.109202475127577,-3.1224235802471636
1774021065477465300,9.66946533203125,-5.981635200002789,-7.101153608706593,-3.1565885924383994
1774021065487543300,9.679543212890625,-5.9762406474828715,-7.091692537400126,-3.1879192579865454
1774021065497621200,9.689621337890625,-5.974121171110868,-7.079969950902462,-3.217808492554724
1774021065507699500,9.699699462890624,-5.974206511306762,-7.0659028471052645,-3.248423995570838
1774021065517777400,9.70977734375,-5.9750055527299635,-7.050337613704801,-3.2806147850796576
1774021065527855400,9.71985546875,-5.97532996237874,-7.034308269923925,-3.314261326354742
1774021065537933300,9.729933349609375,-5.974417523708939,-7.018255545267462,-3.3497482347995042
1774021065548011300,9.74001123046875,-5.971974806731939,-7.001961997592449,-3.3879838574305174
1774021065558089500,9.75008935546875,-5.968194703671336,-6.985412429329752,-3.428565166404843
1774021065568167400,9.76016748046875,-5.963381165909767,-6.968685166412592,-3.4707194237843155
1774021065578245400,9.770245361328126,-5.95822918997407,-6.951579717832804,-3.5136049180477857
1774021065588323300,9.7803232421875,-5.952992458364367,-6.933909621107578,-3.557127541171014
1774021065598400300,9.790400146484375,-5.948139173114299,-6.915605318132043,-3.6006162620246407
1774021065608478200,9.800478271484375,-5.942683245795965,-6.896942703238129,-3.645146016363799
1774021065618556400,9.810556396484374,-5.934719719570875,-6.877961523914337,-3.693661040946841
1774021065628634400,9.82063427734375,-5.922452943193912,-6.858759395316243,-3.7486464305877685
1774021065638712300,9.83071240234375,-5.906296173641085,-6.839549667933583,-3.8087536932870742
1774021065648790300,9.840790283203125,-5.888478192877769,-6.81978639832139,-3.871269770693779
1774021065658868200,9.8508681640625,-5.872629466360807,-6.7983473044514655,-3.9325671199604866
1774021065668946400,9.860946533203125,-5.861151794534921,-6.774938371813297,-3.989672570495307
1774021065679024400,9.8710244140625,-5.854118827158213,-6.750166918650269,-4.041647087882459
1774021065689102300,9.881102294921876,-5.850128296217322,-6.724974609726667,-4.0891456288993355
1774021065699180300,9.89118017578125,-5.847673304280638,-6.699961749023199,-4.133475184491276
1774021065709258200,9.90125830078125,-5.845760748657584,-6.675888214996457,-4.174922462645172
1774021065719336400,9.91133642578125,-5.844044007867574,-6.653001260405778,-4.213681232367455
1774021065729414400,9.921414306640624,-5.841804704508185,-6.631304392382503,-4.250823799064755
1774021065739492400,9.931492431640624,-5.838178915226459,-6.610695319595933,-4.287745708748698
1774021065749569500,9.941569580078125,-5.833367715552449,-6.590325316262245,-4.325485364556313
1774021065759647500,9.9516474609375,-5.8261254893392325,-6.570175093159079,-4.365713330048322
1774021065769725400,9.961725341796875,-5.8139668495118615,-6.550619913339615,-4.411071644166111
1774021065779803400,9.971803466796874,-5.796127241438627,-6.531406678825617,-4.462736657212674
1774021065789881300,9.98188134765625,-5.77430177859962,-6.512248389369249,-4.518677740143239
1774021065799959300,9.991959228515626,-5.751904068830609,-6.492609622919559,-4.575151030254363
1774021065810037200,10.002037353515625,-5.731732802939415,-6.471565665847063,-4.629953756804764
1774021065820115200,10.012115234375,-5.7163435106277465,-6.44814738085866,-4.681367133177816
1774021065830193400,10.022193359375,-5.706819310957193,-6.4221478472054,-4.728490995663404
1774021065840271400,10.032271240234374,-5.703161957493424,-6.393657081258296,-4.77132008356452
1774021065850349300,10.042349365234376,-5.703824220794439,-6.3636979963243006,-4.810417291460931
1774021065860427300,10.05242724609375,-5.707582696545123,-6.3336670151978725,-4.845466977532208
1774021065870505200,10.062505126953125,-5.713458310580253,-6.304222309526801,-4.876839436395466
1774021065880583400,10.07258349609375,-5.720691184443235,-6.275612301114201,-4.905176765346527
1774021065890661400,10.082661376953125,-5.72866464754045,-6.247777953249216,-4.9313329508662225
1774021065900738600,10.092738525390626,-5.7373500582993024,-6.221010357832908,-4.955020115923881
1774021065910816500,10.10281640625,-5.746971873125434,-6.195620480510592,-4.975640879148244
1774021065920894500,10.11289453125,-5.757706617629528,-6.1722565560579294,-4.992238962727785
1774021065930972400,10.122972412109375,-5.769366075763106,-6.151804135137796,-5.004010064542293
1774021065941050600,10.133050537109375,-5.782306221356988,-6.133965696108341,-5.010966459551454
1774021065951128600,10.143128662109374,-5.796749172729253,-6.117675655564666,-5.014193020382523
1774021065961206500,10.15320654296875,-5.812782023641467,-6.102118020948767,-5.0145881571799515
1774021065971284500,10.163284423828125,-5.830547981956601,-6.087243107900023,-5.012043733394146
1774021065981362400,10.173362548828125,-5.849333346447348,-6.074210607847571,-5.005961783131957
1774021065991440400,10.1834404296875,-5.869074404227733,-6.06419716335535,-4.9949850465655325
1774021066001518600,10.1935185546875,-5.889699843627214,-6.057441259354353,-4.978879130417108
1774021066011596800,10.2035966796875,-5.910943122664094,-6.052733520054817,-4.959391170614958
1774021066021674800,10.2136748046875,-5.933001809737086,-6.048561202806234,-4.938095284608006
1774021066031752700,10.223752685546875,-5.954461946395039,-6.043941141790151,-4.917879010531306
1774021066041830000,10.233829833984375,-5.975160451030731,-6.038132163250446,-4.899878074416518
1774021066051907800,10.243907958984375,-5.996279811426997,-6.0303778958618635,-4.883600016571581
1774021066061985800,10.25398583984375,-6.017866204813123,-6.020505321145057,-4.869207918603718
1774021066072063700,10.264063720703126,-6.039066813752055,-6.008679274272918,-4.857554305689036
1774021066082142000,10.274141845703125,-6.06046849822104,-5.995085048684477,-4.847687283930182
1774021066092220000,10.284219970703125,-6.082738197696209,-5.980092062214016,-4.838303369513154
1774021066102297900,10.2942978515625,-6.106058283007145,-5.964294189101457,-4.828418812097609
1774021066112375800,10.304375732421875,-6.130742642408609,-5.948247309663891,-4.816921266527474
1774021066122453800,10.314453857421874,-6.157819449904561,-5.931751517415046,-4.802704525126517
1774021066132532000,10.324531982421876,-6.187721251693367,-5.9143865411162375,-4.785657820996642
1774021066142610000,10.33460986328125,-6.220656722089648,-5.896130753457546,-4.765444761790335
1774021066152687900,10.34468798828125,-6.2569596230924125,-5.876892384502291,-4.741621110871434
1774021066162765800,10.354765869140625,-6.298175430577993,-5.856363975736499,-4.712362575422227
1774021066172843800,10.36484375,-6.343813730680942,-5.834154482015967,-4.678574872110784
1774021066182922000,10.374921875,-6.3904743595689535,-5.811482046958804,-4.64315606046617
1774021066192999000,10.3849990234375,-6.437616049972176,-5.788553591313958,-4.606531087902188
1774021066203076900,10.395076904296875,-6.48587476170659,-5.7647261410027735,-4.568562007252872
1774021066213154800,10.40515478515625,-6.535850798752904,-5.7393631516873835,-4.5291000576972955
1774021066223232800,10.415232666015624,-6.587834668490291,-5.712070071092247,-4.488103153659403
1774021066233310700,10.425310791015624,-6.640733899506926,-5.6830625877946614,-4.44677920962423
1774021066243389000,10.435388916015626,-6.692546504330634,-5.652689661362767,-4.407641085195541
1774021066253467000,10.445466796875,-6.742676855155826,-5.6213867606043815,-4.371122203354537
1774021066263544800,10.455544921875,-6.791117353197932,-5.589666511216759,-4.336674574829638
1774021066273622800,10.465622802734375,-6.8375242995858185,-5.558244367992877,-4.304017921374738
1774021066283700700,10.47570068359375,-6.881675576001405,-5.527883716520667,-4.2726366946831345
1774021066293779000,10.485779052734374,-6.923641909593344,-5.499643710464238,-4.241165743881464
1774021066303857000,10.49585693359375,-6.963871628651023,-5.474000735163688,-4.20834776238501
1774021066313934800,10.505934814453125,-7.002573407489061,-5.451214318338036,-4.173560818903148
1774021066324011800,10.51601171875,-7.0400459367930885,-5.431400195321441,-4.1361853202328085
1774021066334089700,10.52608984375,-7.076502567052841,-5.414249738556146,-4.096266566820442
1774021066344167700,10.536167724609374,-7.1116779253304,-5.399301760271191,-4.054868680766225
1774021066354246000,10.546245849609376,-7.14498748973608,-5.386192103329301,-4.013536845685541
1774021066364323800,10.55632373046875,-7.176149520719051,-5.37466766975224,-3.9731875919014215
1774021066374401800,10.56640185546875,-7.204855975243449,-5.36426142655015,-3.9351150508776307
1774021066384479700,10.576479736328125,-7.231182256633043,-5.354239214229583,-3.9003216776549814
1774021066394557700,10.5865576171875,-7.256516604375839,-5.343529604166746,-3.867820507022738
1774021066404636000,10.596635986328126,-7.282852822637557,-5.33132361806631,-3.8350276599675412
1774021066414713900,10.6067138671875,-7.3111606332331895,-5.3170139376848935,-3.8008793066501614
1774021066424791800,10.616791748046875,-7.340837394094467,-5.3006759663462635,-3.766340784971416
1774021066434869800,10.626869873046875,-7.370605924892425,-5.283135633480549,-3.7326980430886145
1774021066444947700,10.63694775390625,-7.399461432498693,-5.264826654329895,-3.7013439966648813
1774021066455025700,10.647025634765624,-7.4266948918610804,-5.2467386244535446,-3.67237421502918
1774021066465102600,10.6571025390625,-7.4519748790681355,-5.229571216553449,-3.645551382294297
1774021066475180800,10.667180908203125,-7.47591280401647,-5.213208695295453,-3.6198838570743797
1774021066485258800,10.6772587890625,-7.499388372150063,-5.1972126692622895,-3.5942367901206014
1774021066495336700,10.687336669921875,-7.5231287286996835,-5.181148254168034,-3.56771878555119
1774021066505414700,10.69741455078125,-7.547130366533994,-5.164814959004521,-3.540605737698078
1774021066515492600,10.70749267578125,-7.571034389212727,-5.148438409221172,-3.513318794582784
1774021066525570800,10.71757080078125,-7.594353305479884,-5.132756271442771,-3.485826976545155
1774021066535648800,10.727648681640625,-7.616649308440088,-5.118175957426429,-3.45851343768388
1774021066545726700,10.737726806640625,-7.6381380866706365,-5.104628493589162,-3.4310356481716036
1774021066555804700,10.7478046875,-7.659404162061214,-5.09154104847908,-3.402957554678619
1774021066565882600,10.757882568359374,-7.681260604560375,-5.078314487159252,-3.3733284323513506
1774021066575960800,10.7679609375,-7.703976294237375,-5.0647600090593095,-3.3417578205674885
1774021066586038800,10.778038818359375,-7.727413868448138,-5.050916777145862,-3.3084280901566148
1774021066596116700,10.78811669921875,-7.750776623857021,-5.037611305370927,-3.2738851845636963
1774021066606193700,10.798193603515625,-7.772910129731893,-5.0256619243800635,-3.239594207905233
1774021066616271600,10.808271728515624,-7.793110621717572,-5.015054021126032,-3.2073432126417756
1774021066626349600,10.818349609375,-7.811497926801443,-5.005740833857655,-3.1770176324829458
1774021066636427800,10.828427734375,-7.829013709747791,-4.996945532983541,-3.1476129665613173
1774021066646505700,10.838505615234375,-7.846895403397083,-4.987520117512345,-3.117894120123982
1774021066656583700,10.848583740234375,-7.866151308009028,-4.976552733296155,-3.086741441491246
1774021066666661600,10.85866162109375,-7.886753951054811,-4.963830614367127,-3.054486354574561
1774021066676739600,10.868739501953126,-7.90844614290297,-4.949378310644627,-3.0216759718626736
1774021066686817800,10.87881787109375,-7.930517104935646,-4.933877959173918,-2.9890011982291935
1774021066696895700,10.888895751953125,-7.952527861213683,-4.9178340023458,-2.9567876123666763
1774021066706973700,10.8989736328125,-7.974532772272825,-4.901369189757109,-2.924687716011703
1774021066717051600,10.9090517578125,-7.996330762583017,-4.884658877974748,-2.892954607142508
1774021066727129600,10.919129638671874,-8.018003665208816,-4.867586454881727,-2.861573380450904
1774021066737206800,10.929206787109376,-8.03974203428626,-4.8498821636259555,-2.83047272426635
1774021066747285000,10.939284912109375,-8.06199186001718,-4.8313767851203675,-2.7986548597231504
1774021066757363000,10.949363037109375,-8.084849588513373,-4.812383915358781,-2.7652403736382722
1774021066767441000,10.95944091796875,-8.108046924227475,-4.7935038583219045,-2.729887320706248
1774021066777518800,10.969518798828124,-8.131275824123621,-4.77484416603744,-2.6932509499654174
1774021066787596800,10.9795966796875,-8.154403601732849,-4.756465921042859,-2.655584067133069
1774021066797675000,10.989675048828126,-8.177716088259219,-4.7383130092367525,-2.616053436255455
1774021066807753000,10.9997529296875,-8.201151324382424,-4.720248067975044,-2.5750258448183536
1774021066817831000,11.009830810546875,-8.224494790568947,-4.702134026874601,-2.5333798292219636
1774021066827908900,11.019908935546875,-8.247213402855396,-4.68452267459929,-2.4918074633836746
1774021066837986800,11.02998681640625,-8.269377888390421,-4.667411965322494,-2.4501097176000473
1774021066848065000,11.04006494140625,-8.291218548798561,-4.651017879882454,-2.407097382086515
1774021066858143000,11.05014306640625,-8.313093695998191,-4.635450600655377,-2.3612419321015476
1774021066868220000,11.060219970703125,-8.335048922696709,-4.620689669375121,-2.3122651352256534
1774021066878297900,11.0702978515625,-8.356445346468687,-4.607411377868056,-2.260966471273452
1774021066888375800,11.080375732421874,-8.377054419255256,-4.596112277479469,-2.207056017387658
1774021066898453800,11.090453857421876,-8.396789631816745,-4.587080245240032,-2.150116424939036
1774021066908532000,11.100531982421876,-8.41569190068543,-4.579981519150734,-2.0905225185893475
1774021066918610000,11.11060986328125,-8.433880468326807,-4.574695687702298,-2.0278576803617177
1774021066928687900,11.12068798828125,-8.451670392039418,-4.5708670693248505,-1.9613313444003462
1774021066938765800,11.130765869140625,-8.469167470285296,-4.5682177238598465,-1.890760701484233
1774021066948843800,11.14084375,-8.486414373162388,-4.566210475690663,-1.8168311035290359
1774021066958921700,11.150921630859376,-8.503020640048383,-4.564639280851185,-1.7415768328413366
1774021066969000000,11.161,-8.518562492573261,-4.563747008186579,-1.6663417052455245
1774021066979078000,11.171077880859375,-8.53279326249957,-4.564211703088879,-1.5905314081102608
1774021066989154800,11.18115478515625,-8.546135559153557,-4.565939842055737,-1.512000746100396
1774021066999232800,11.191232666015624,-8.559512342599033,-4.567956442575157,-1.4279020746998488
1774021067009310700,11.201310791015626,-8.573741358959674,-4.569013550412655,-1.3362126559093594
1774021067019388700,11.211388671875,-8.589370889768004,-4.567746014694869,-1.2364422219939528
1774021067029466600,11.221466552734375,-8.606342482835053,-4.563266823454201,-1.1304216416426003
1774021067039544800,11.231544921875,-8.62429022745788,-4.5552994978368275,-1.0204134529598057
1774021067049622800,11.241622802734375,-8.642993174362182,-4.543735316771269,-0.9074828740242868
1774021067059700700,11.25170068359375,-8.662286488375067,-4.5284398402228945,-0.7927225954435765
1774021067069778700,11.26177880859375,-8.682048004421592,-4.509650676339865,-0.6748937230724841
1774021067079856600,11.271856689453125,-8.701996567472815,-4.487678498506546,-0.5535135148953646
1774021067089934800,11.281934814453125,-8.721963250702618,-4.462523014461994,-0.4285186964176595
1774021067100012800,11.2920126953125,-8.741756915453076,-4.434124602973461,-0.3010129728312604
1774021067110090800,11.3020908203125,-8.76125948830247,-4.402336549046636,-0.1736449772151187
1774021067120167700,11.312167724609376,-8.780084600281715,-4.367848296250402,-0.04901550318477675
1774021067130245600,11.32224560546875,-8.797648898544907,-4.332080232776701,0.06953495232597924
1774021067140323600,11.332323486328125,-8.813408193212748,-4.296792061774433,0.17832423933884128
1774021067150401800,11.34240185546875,-8.827063209077716,-4.263535981121659,0.2749688328512944
1774021067160479700,11.352479736328124,-8.838642587712407,-4.233172991561889,0.35919765170384194
1774021067170557700,11.3625576171875,-8.8484251460582,-4.205568653060496,0.434679885928519
1774021067180635600,11.3726357421875,-8.857163748309016,-4.179182165916264,0.505439694741182
1774021067190713600,11.382713623046875,-8.865452268704772,-4.152674390479922,0.5739586292918771
1774021067200791800,11.392791748046875,-8.873944202718139,-4.124748564939201,0.640272929937765
1774021067210869800,11.402869873046875,-8.883020074099301,-4.0950817409500475,0.7018829984154552
1774021067220947700,11.41294775390625,-8.892934734392165,-4.064085714183747,0.7545237246263772
1774021067231025700,11.423025634765626,-8.903325780025124,-4.033659596259891,0.7942104228485375
1774021067241103600,11.433103515625,-8.913434501585364,-4.006314200955629,0.8188502124559134
1774021067251180500,11.4431806640625,-8.922395806676148,-3.983899247790873,0.8305349511612207
1774021067261258800,11.4532587890625,-8.930466884928942,-3.96514194035083,0.833542316283658
1774021067271336700,11.463336669921874,-8.938738454189895,-3.947053910474479,0.8307257244929671
1774021067281414700,11.47341455078125,-8.948537963670491,-3.9266289620831607,0.8219739704996347
1774021067291492600,11.48349267578125,-8.960343552276491,-3.9031156922876833,0.8051786107823252
1774021067301570600,11.493570556640625,-8.973396510595082,-3.8781875872582194,0.7798700550679117
1774021067311648800,11.503648681640625,-8.986151947271823,-3.854833015155792,0.7481411109171807
1774021067321726700,11.513726806640625,-8.997623189356922,-3.834598328639567,0.7134563126355409
1774021067331804700,11.5238046875,-9.00743848092854,-3.8176328730523585,0.679790409072861
1774021067341882600,11.533882568359376,-9.015928076854347,-3.8028935690820216,0.6491759289700537
1774021067351960600,11.543960693359375,-9.02405760729611,-3.7883410198554395,0.6206788063473999
1774021067362038800,11.554038818359375,-9.032496934339404,-3.77273019374758,0.5923575517483055
1774021067372116000,11.564115966796875,-9.041022770622373,-3.7567517033711075,0.5631264888279139
1774021067382194000,11.57419384765625,-9.048852441334724,-3.742354344706237,0.5323916702810675
1774021067392272000,11.58427197265625,-9.055988869085908,-3.7306548468232155,0.4915950380556285
1774021067402349800,11.594349853515626,-9.061510262855887,-3.723380471906066,0.442556391457282
1774021067412427800,11.604427734375,-9.064288495397568,-3.7222371470898388,0.39244226111453023
1774021067422505700,11.614505615234375,-9.065580288773775,-3.725194535590708,0.32948899786695834
1774021067432584000,11.624583984375,-9.069401892888546,-3.723845751330256,0.22204580083396283
1774021067442662000,11.634661865234374,-9.080669136834144,-3.7023578498825427,0.06618204343519173
1774021067452739800,11.64473974609375,-9.093848351880908,-3.669408058699965,-0.08802046622047201
1774021067462817800,11.65481787109375,-9.101468179234862,-3.6472906271770595,-0.17586866288026795
1774021067472895700,11.664895751953125,-9.10275763452351,-3.643839902201295,-0.18059194680880755
1774021067482973700,11.6749736328125,-9.098162123426794,-3.6578254651948807,-0.11892533497144467
1774021067493051000,11.68505078125,-9.087268973490595,-3.6866602222740648,-0.021472560031397733
1774021067503128800,11.69512890625,-9.070612437722087,-3.7266681152746077,0.07946751360171474
1774021067513206800,11.705206787109375,-9.050718235206604,-3.7722175680503245,0.15893298137681558
1774021067523284700,11.71528466796875,-9.031108694851397,-3.81678151692003,0.2040709672748111
1774021067533363000,11.725363037109375,-9.014548020672798,-3.85530355527699,0.21198157600257544
1774021067543441000,11.73544091796875,-9.004040655183791,-3.8808798950821157,0.19081371855577453
1774021067553518800,11.745518798828124,-9.0029803324759,-3.884859320107102,0.15685261317249385
1774021067563596800,11.7555966796875,-9.011889615118504,-3.8654444255411624,0.12071611824519932
1774021067573674800,11.7656748046875,-9.029245239067077,-3.825589092753827,0.08933096429714933
1774021067583752700,11.775752685546875,-9.052059128421545,-3.771748781494796,0.06726614431089256
1774021067593831000,11.785830810546875,-9.076616646572948,-3.7124668637037277,0.05484752010677475
1774021067603908900,11.795908935546874,-9.099507108294963,-3.656079498310387,0.049418252466502596
1774021067613985800,11.80598583984375,-9.11877587238848,-3.607757365950942,0.04901764490951318
1774021067624063700,11.816063720703125,-9.134116649383307,-3.5686338545694944,0.05610055694174952
1774021067634141700,11.8261416015625,-9.146057847067713,-3.5376150314494965,0.07276153598993551
1774021067644219600,11.8362197265625,-9.155530024290083,-3.5124025565207004,0.09841614236277528
1774021067654297900,11.8462978515625,-9.16334975813031,-3.490942712123692,0.12930069897808133
1774021067664375800,11.856375732421874,-9.170097478824854,-3.4718867139980194,0.16031424313476308
1774021067674453800,11.866453857421876,-9.176020439133048,-3.454828319430351,0.18760679400693625
1774021067684531700,11.87653173828125,-9.181205732816457,-3.4397783420756456,0.20919910567719488
1774021067694609700,11.886609619140625,-9.185797736781835,-3.4264255240276453,0.22607218853952363
1774021067704687900,11.89668798828125,-9.189862502002715,-3.414477312080562,0.24116383134517816
1774021067714765800,11.906765869140624,-9.193664232373237,-3.403110114891827,0.2564348493057303
1774021067724843800,11.91684375,-9.197533182761072,-3.391388405176997,0.2724989904053509
1774021067734920700,11.926920654296875,-9.201824157953261,-3.3784427066251634,0.287987980231829
1774021067744998700,11.93699853515625,-9.20669380981624,-3.3640900638848543,0.30011374070290475
1774021067755076600,11.94707666015625,-9.21204803032577,-3.3487086626186966,0.30774821763671933
1774021067765154800,11.95715478515625,-9.217689835605025,-3.332784532777965,0.3116546870233491
1774021067775232800,11.967232666015626,-9.22454452380538,-3.3135622381746765,0.31379600990097967
1774021067785310700,11.977310791015626,-9.232776345577836,-3.2902722557410597,0.31674660333488136
1774021067795388700,11.987388671875,-9.24162717603147,-3.264895530161261,0.3211998198840767
1774021067805466600,11.997466552734375,-9.249967134353518,-3.24069047870934,0.32621490809973325
1774021067815544800,12.007544921875,-9.257630216327309,-3.2183760633096097,0.32973369334302843
1774021067825622800,12.017622802734374,-9.264380859631299,-3.1988238060995933,0.33038744454402474
1774021067835700700,12.02770068359375,-9.269835033383965,-3.1832606185257433,0.32770989589784294
1774021067845778700,12.03777880859375,-9.274130100229382,-3.1711990093320606,0.3230907481972128
1774021067855855600,12.047855712890625,-9.277668795749545,-3.1611879029273986,0.3195864664033055
1774021067865933600,12.05793359375,-9.281158391430974,-3.1510648605808615,0.31823370008748025
1774021067876011800,12.06801171875,-9.285109174883365,-3.139402479837835,0.318249226450175
1774021067886089700,12.07808984375,-9.289672537276148,-3.125862030263245,0.3183541846619919
1774021067896167700,12.088167724609375,-9.294501857128738,-3.1114974048241972,0.3181228966567665
1774021067906245600,12.09824560546875,-9.299315979412198,-3.097222795756161,0.31673246521167453
1774021067916323600,12.108323486328125,-9.304065804287792,-3.0831556919589636,0.3144751878041774
1774021067926401800,12.11840185546875,-9.308960006070137,-3.0685990510791537,0.3120088707558811
1774021067936479700,12.128479736328124,-9.31432299440801,-3.052546326422691,0.309409574977681
1774021067946557700,12.1385576171875,-9.320295639076829,-3.0345918597981334,0.30615599827552215
1774021067956635600,12.1486357421875,-9.326852805635333,-3.014768968953192,0.30227055341061204
1774021067966713600,12.158713623046875,-9.33379283403158,-2.9937144904866813,0.2972619497346692
1774021067976790800,12.168790771484375,-9.340765011131763,-2.9725460302516815,0.2906350424082018
1774021067986868700,12.17886865234375,-9.347533774614334,-2.951998916785419,0.2823102268563583
1774021067996946700,12.18894677734375,-9.354035996115208,-2.9322733488351105,0.27234000045135615
1774021068007024600,12.199024658203125,-9.360378643140196,-2.912992017520964,0.2610886847272515
1774021068017102600,12.2091025390625,-9.366649393972754,-2.893834897108376,0.24896845894781872
1774021068027180500,12.2191806640625,-9.372932419764995,-2.8744480595931408,0.2367847760107368
1774021068037258500,12.229258544921874,-9.379355146288871,-2.854363595202565,0.22513386650979517
1774021068047336400,12.23933642578125,-9.38601577322185,-2.833191920097172,0.21473255521114915
1774021068057414400,12.249414306640626,-9.393238710212707,-2.80986482052356,0.20521664844490586
1774021068067492600,12.25949267578125,-9.400926342105866,-2.784749960750341,0.19529062650781123
1774021068077570600,12.269570556640625,-9.408914418250323,-2.758388315786421,0.18441070137936622
1774021068087647500,12.2796474609375,-9.41690015630722,-2.731755744926631,0.17286940799904987
1774021068097725400,12.289725341796874,-9.424684234312176,-2.705425956405699,0.16242321637906132
1774021068107803400,12.299803466796876,-9.432030505421757,-2.6801114824071526,0.15551389364833013
1774021068117881300,12.30988134765625,-9.439001513478159,-2.655587866525352,0.1532574382247403
1774021068127959600,12.31995947265625,-9.44550782663226,-2.6320988543882966,0.15754611186198889
1774021068138037500,12.33003759765625,-9.451505021220445,-2.6098908219724892,0.16706632947716862
1774021068148115500,12.340115478515624,-9.456915940353273,-2.5894249570488928,0.1788822568140924
1774021068158193400,12.350193359375,-9.461748767337202,-2.5709488046377897,0.18952965182829648
1774021068168271400,12.360271240234376,-9.466057862707972,-2.5544366457760335,0.19744228811636566
1774021068178349300,12.370349365234375,-9.470023259207606,-2.539233815947175,0.20330902472529558
1774021068188427500,12.380427490234375,-9.473843694278598,-2.524578098607063,0.20778171315994112
1774021068198504400,12.39050439453125,-9.477755899286269,-2.509570791350305,0.21113887810073792
1774021068208582400,12.40058251953125,-9.482032261431216,-2.4931506946861743,0.21364691539891062
1774021068218660400,12.410660400390626,-9.486845799192785,-2.474642685832083,0.21513004836244506
1774021068228738300,12.42073828125,-9.492194759005308,-2.4539704846814274,0.21599556088428942
1774021068238816300,12.430816162109375,-9.497914305695891,-2.4316905560731885,0.21654415294406934
1774021068248894500,12.44089453125,-9.503644958302377,-2.4091505152240393,0.21705506160827354
1774021068258972400,12.450972412109374,-9.50895709323585,-2.3879947683401404,0.21817920679999514
1774021068269050400,12.46105029296875,-9.513697565761207,-2.3688578139327463,0.2201288612967357
1774021068279128300,12.47112841796875,-9.517875728228688,-2.351743305263668,0.22299760339977218
1774021068289206300,12.481206298828125,-9.521699670431017,-2.33587791987285,0.22648347275415434
1774021068299284500,12.491284423828125,-9.525353516763449,-2.320609477461874,0.22976117925057185
1774021068309362400,12.501362548828125,-9.529034251102805,-2.3052606632910666,0.23165952368518336
1774021068319439400,12.511439453125,-9.532896187227964,-2.2892022395461797,0.23201891331579536
1774021068329517300,12.521517333984375,-9.53681891362965,-2.272880342559516,0.23125695249997077
1774021068339595300,12.53159521484375,-9.540783725607394,-2.256350501910597,0.22958271741112693
1774021068349673200,12.541673095703125,-9.544598315459488,-2.240388085886091,0.22735738777816294
1774021068359751400,12.55175146484375,-9.548225273784995,-2.225119205083698,0.22499869582280516
1774021068369829400,12.561829345703124,-9.55166635414958,-2.2104659719616175,0.22338252933043987
1774021068379907300,12.5719072265625,-9.555019756230712,-2.1959337348707018,0.2232829414134845
1774021068389985300,12.5819853515625,-9.558442716416716,-2.18083085828498,0.22479561099875717
1774021068400063200,12.592063232421875,-9.562104746055603,-2.164504869645089,0.22683212179504333
1774021068410141400,12.602141357421875,-9.565998830884695,-2.147110813382268,0.22796958312606438
1774021068420218400,12.61221826171875,-9.569981763041019,-2.129376126988232,0.22712765240920707
1774021068430296300,12.62229638671875,-9.573788754108548,-2.11247321524322,0.22452727891877292
1774021068440374300,12.632374267578125,-9.577128127664327,-2.097657631166279,0.22098312177220358
1774021068450452200,12.6424521484375,-9.579932663691043,-2.08510502358526,0.21819140869444234
1774021068460530200,12.6525302734375,-9.58241921980977,-2.0737495168343183,0.2172291395335458
1774021068470608400,12.6626083984375,-9.584904022362828,-2.062177006331831,0.21777289102142675
1774021068480686300,12.672686279296874,-9.58760159088373,-2.0495595168210565,0.21815049216216428
1774021068490764300,12.682764404296876,-9.590704817596077,-2.0350743337422608,0.21733811633335426
1774021068500842200,12.69284228515625,-9.594304303392768,-2.0182371807098387,0.21548538287244737
1774021068510920200,12.702920166015625,-9.598324060428142,-1.9992893191337584,0.2130843496127054
1774021068520998400,12.712998291015625,-9.602589901179075,-1.9789011956214904,0.2111972389581613
1774021068531076400,12.723076416015624,-9.607095395904778,-1.9568596058137713,0.21165941310981287
1774021068541153500,12.733153564453126,-9.61190367296934,-1.9328117907501756,0.21430145205119625
1774021068551231500,12.7432314453125,-9.617175475892424,-1.9060704988189041,0.21728119851434602
1774021068561309400,12.753309326171875,-9.623050505405663,-1.876082041659951,0.21817074949890375
1774021068571387400,12.763387451171875,-9.629543374556302,-1.8426840683184562,0.2163244092461653
1774021068581465600,12.773465576171875,-9.6365032766968,-1.806381605707109,0.21254615108277647
1774021068591543600,12.78354345703125,-9.64377882065773,-1.7676105610251425,0.2084890577116981
1774021068601621500,12.79362158203125,-9.651223291444778,-1.7268655859217046,0.20545396433211863
