time,seconds_elapsed,z,y,x
1774005582665491000,0.089490966796875,-8.170101521602273,-5.407897739180922,-0.41769411820564417
1774005582675570000,0.09956982421875,-8.119716903755068,-5.481864308145642,-0.435597256501764
1774005582685648000,0.10964794921875,-8.071596139186621,-5.549628515338897,-0.4704731203760951
1774005582695726800,0.119726806640625,-8.023876941156386,-5.61379908195436,-0.52253743493855
1774005582705805000,0.12980517578125,-7.971772075387835,-5.681633431774378,-0.5833361870333552
1774005582715884000,0.139884033203125,-7.909760732632875,-5.761527637222409,-0.6409916726663708
1774005582725962000,0.1499619140625,-7.834214785522222,-5.858751163133978,-0.685931322980672
1774005582736041000,0.160041015625,-7.7431766702473155,-5.975396597874164,-0.7129024781450629
1774005582746119000,0.170118896484375,-7.637282931146025,-6.109394149431586,-0.7194470044177025
1774005582756198000,0.180197998046875,-7.519561391606927,-6.2552545727401965,-0.7059624497488141
1774005582766275800,0.19027587890625,-7.395600665417313,-6.404759490031004,-0.674196388458088
1774005582776355000,0.20035498046875,-7.272686233410239,-6.5485471987187855,-0.6284479790441692
1774005582786433000,0.21043310546875,-7.157185877051949,-6.679523941150308,-0.5736185836825519
1774005582796512000,0.220511962890625,-7.0518836741030215,-6.795254014611244,-0.5155956529766321
1774005582806590000,0.23058984375,-6.956351754540204,-6.896864377304912,-0.4613178270831704
1774005582816669000,0.2406689453125,-6.869993321514129,-6.985888230147958,-0.41344497286118564
1774005582826747000,0.250746826171875,-6.78981445390582,-7.066202706834673,-0.37090821897014975
1774005582836825900,0.260825927734375,-6.7119882869035,-7.14217184779346,-0.330116518648155
1774005582846904000,0.270904052734375,-6.633122839981317,-7.217109307616949,-0.29223610266298056
1774005582856983000,0.280983154296875,-6.550332328569889,-7.293691027516126,-0.2561213263771497
1774005582867061800,0.291061767578125,-6.4634302901864045,-7.371952078804373,-0.22084227026309816
1774005582877140000,0.301139892578125,-6.375124814745783,-7.449333424648642,-0.18867995793009176
1774005582887219000,0.311218994140625,-6.288574074018001,-7.523211730808019,-0.1596790870363824
1774005582897297000,0.321296875,-6.207284030297398,-7.590913978680968,-0.1342873282842338
1774005582907376000,0.331376220703125,-6.132583886361122,-7.651723544430732,-0.11369838497024029
1774005582917454000,0.3414541015625,-6.062734105065465,-7.707474073225259,-0.09208207136988639
1774005582927532800,0.35153271484375,-5.9955164258390665,-7.760147094270587,-0.06539482488052453
1774005582937610800,0.36161083984375,-5.927470479094982,-7.812450697481632,-0.03298157456032932
1774005582947685600,0.371685546875,-5.8564329493194816,-7.865911069512367,0.0039689855439515665
1774005582957763800,0.381763916015625,-5.78217119680047,-7.92053113297224,0.0454034136348404
1774005582967842800,0.3918427734375,-5.706150617915392,-7.975103850159049,0.08911945870462805
1774005582977920800,0.401920654296875,-5.631243553230166,-8.027633663341403,0.12877262911652215
1774005582988000000,0.412,-5.558593912082911,-8.077534881585835,0.16080067494483663
1774005582998078000,0.422077880859375,-5.489022363206744,-8.124479003590345,0.1840464529105462
1774005583008156700,0.43215673828125,-5.423312750455737,-8.16811180908978,0.20005725638773292
1774005583018234600,0.442234619140625,-5.361771947821975,-8.20833860553801,0.2120761406845413
1774005583028313900,0.45231396484375,-5.303862779688835,-8.245625841403006,0.22155533216958864
1774005583038391800,0.462391845703125,-5.248422047495842,-8.28085263760686,0.22788475438682362
1774005583048470800,0.472470703125,-5.195279655373096,-8.31415927940309,0.23282748975232243
1774005583058549000,0.482549072265625,-5.146251712831854,-8.344433421635626,0.238558946076408
1774005583068627700,0.492627685546875,-5.103862185391783,-8.370265197506546,0.24419163646744563
1774005583078705700,0.50270556640625,-5.070227626815438,-8.390574995085597,0.2478186678581871
1774005583088785000,0.512784912109375,-5.044571792033315,-8.405998189666867,0.24873817558959124
1774005583098862800,0.52286279296875,-5.025158651033044,-8.417653556147217,0.2475349007470533
1774005583108941800,0.53294189453125,-5.0110149748682975,-8.426166532948614,0.2446120538366027
1774005583119019800,0.543019775390625,-4.999980370634794,-8.432834758666157,0.24058754756087436
1774005583129099000,0.55309912109375,-4.988768656268715,-8.439615212586522,0.2355179526790045
1774005583139177000,0.563177001953125,-4.974430918836593,-8.44825327707231,0.22897992921238763
1774005583149255700,0.573255615234375,-4.955615743729472,-8.459531042411923,0.22043774458281695
1774005583159334000,0.583333984375,-4.933683897906541,-8.472596860212088,0.21034528003763406
1774005583169412900,0.593412841796875,-4.911151163581013,-8.48596429130733,0.19846282680314034
1774005583179490800,0.60349072265625,-4.890181440788507,-8.49838479694128,0.18432746180901302
1774005583189569800,0.61356982421875,-4.871663787323236,-8.509358610898255,0.16765349998166784
1774005583199648000,0.62364794921875,-4.855220309783518,-8.519112527671457,0.1481176093845628
1774005583209726700,0.633726806640625,-4.84063239698261,-8.527762282595038,0.12621193004935047
1774005583219805700,0.6438056640625,-4.826554479530453,-8.536036189943552,0.10415951745351776
1774005583229884000,0.6538837890625,-4.811856676614284,-8.544556765529514,0.08350920847426169
1774005583239963000,0.663962890625,-4.795152794572711,-8.554106099641322,0.06463066754103639
1774005583250040800,0.674040771484375,-4.774316635031997,-8.565868433627486,0.04668737989761866
1774005583260119800,0.684119873046875,-4.748474922288954,-8.580299694561958,0.02873295208896743
1774005583270197800,0.69419775390625,-4.718156064131856,-8.597051507398486,0.009519903662992874
1774005583280276700,0.70427685546875,-4.686486960409582,-8.614353355333208,-0.012224783274094807
1774005583290354700,0.714354736328125,-4.6581285886704915,-8.629651462230086,-0.03670756824694108
1774005583300434000,0.724433837890625,-4.6364390271708364,-8.641160113716126,-0.06468370833594818
1774005583310511900,0.734511962890625,-4.6241465318307275,-8.647440801420807,-0.09699616516279055
1774005583320590800,0.7445908203125,-4.6228661366313695,-8.64762317225039,-0.1346022851180751
1774005583330668800,0.754668701171875,-4.632888348951935,-8.641474586492777,-0.17791500095082446
1774005583340747800,0.764747802734375,-4.65061631334424,-8.630832196447253,-0.22560362117970362
1774005583350825700,0.77482568359375,-4.669197679695487,-8.619350432968139,-0.27525988821974023
1774005583360905000,0.784905029296875,-4.681004437345266,-8.611206874001025,-0.325109248412773
1774005583370983000,0.79498291015625,-4.680051082143187,-8.60979934529066,-0.37264801184218377
1774005583381062000,0.805061767578125,-4.6636055587768555,-8.616782043784855,-0.4150172636792063
1774005583391139800,0.815139892578125,-4.633256890003383,-8.631365280410646,-0.45039574331343174
1774005583401218800,0.82521875,-4.5941395161017775,-8.650771407148241,-0.4779365150593221
1774005583411296800,0.835296875,-4.55198555098325,-8.67186738666892,-0.4985279791239649
1774005583421375700,0.845375732421875,-4.513366774253547,-8.69107769857347,-0.5148634297119453
1774005583431455000,0.855455078125,-4.484676394081116,-8.704986981460452,-0.5303478894937783
1774005583441533000,0.865532958984375,-4.471005303864181,-8.71099586648643,-0.5468593542357907
1774005583451611600,0.875611572265625,-4.474843566852808,-8.707820743581651,-0.5657026959914714
1774005583461689600,0.885689697265625,-4.495188435745239,-8.695971315833926,-0.5863168102793395
1774005583471768800,0.895768798828125,-4.528469358578324,-8.677282397454977,-0.6067229443723335
1774005583481846800,0.9058466796875,-4.5692409294277425,-8.654712253728508,-0.6232127087391912
1774005583491925800,0.91592578125,-4.610017468713224,-8.632375334236025,-0.6326348362747579
1774005583502004000,0.92600390625,-4.64369791225791,-8.614282043662667,-0.6329466056376696
1774005583512082700,0.936082763671875,-4.666261918504536,-8.602683960327505,-0.6246659032221883
1774005583522161000,0.946160888671875,-4.6773546826660635,-8.597694481477141,-0.6102348614834249
1774005583532240000,0.956239990234375,-4.6802395904526115,-8.59732155651152,-0.5931242618044837
1774005583542317800,0.96631787109375,-4.679779863986373,-8.598685830602049,-0.5767557126644999
1774005583552396800,0.976396728515625,-4.68016710973829,-8.599251647791267,-0.5650550822703168
1774005583562474800,0.986474853515625,-4.684482927110791,-8.597173087951541,-0.5609208685424178
1774005583572554000,0.996553955078125,-4.694355209566653,-8.591455879348516,-0.5659575840679928
1774005583582632000,1.0066318359375,-4.710266479925811,-8.581829388347268,-0.5796310854377225
1774005583592710700,1.016710693359375,-4.73068909022957,-8.569209560748934,-0.5996794556016102
1774005583602790000,1.026789794921875,-4.752730241645872,-8.555355807441472,-0.6227485983587802
1774005583612867800,1.036867919921875,-4.772596094849705,-8.542570560148357,-0.6459076478891074
1774005583622946800,1.04694677734375,-4.787813245464861,-8.53245774693489,-0.6666225191377103
1774005583633025000,1.05702490234375,-4.798282324770093,-8.52533534770906,-0.682287121259421
1774005583643103700,1.067103759765625,-4.805017185983061,-8.520794197148085,-0.6915588074736296
1774005583653181700,1.077181640625,-4.808099369907379,-8.51891905092597,-0.69323908871077
1774005583663261000,1.087260986328125,-4.806696809633076,-8.520148300459981,-0.6878329918835312
1774005583673339000,1.0973388671875,-4.80004962670356,-8.524743811556696,-0.6772317375659942
1774005583683417900,1.10741796875,-4.788052607178688,-8.532593356013297,-0.6631661681387573
1774005583693495800,1.117495849609375,-4.770979599563777,-8.543468385770916,-0.6459722375579178
1774005583703574800,1.12757470703125,-4.749076687574386,-8.557178346693515,-0.625573446521163
1774005583713652700,1.13765283203125,-4.723502685856819,-8.572989663809537,-0.6022874461429193
1774005583723731700,1.147731689453125,-4.69543336019218,-8.590115570655465,-0.5772320980045944
1774005583733810000,1.157809814453125,-4.666537228314578,-8.607517956355213,-0.5517541405400261
1774005583743889000,1.167888916015625,-4.638476670478284,-8.624279121541976,-0.5260536994311958
1774005583753966800,1.177966796875,-4.612899453890323,-8.639543326169251,-0.4998457837242633
1774005583764045800,1.1880458984375,-4.590649335898458,-8.652852889597415,-0.47378498487044124
1774005583774124800,1.198124755859375,-4.572489994351566,-8.663747208577394,-0.44968386871702964
1774005583784202800,1.20820263671875,-4.559658569829166,-8.671499137878417,-0.4301344245186075
1774005583794281700,1.21828173828125,-4.552878408169746,-8.675736337056755,-0.41628289970085025
1774005583804360000,1.22835986328125,-4.551572586268186,-8.67683056203425,-0.40764907299876213
1774005583814439000,1.23843896484375,-4.554292366620898,-8.67558026971221,-0.40387339038494974
1774005583824516900,1.248516845703125,-4.5601659348294135,-8.672472951346636,-0.40433461468853055
1774005583834595800,1.258595947265625,-4.568180022197962,-8.668051627773046,-0.4086471806580201
1774005583844673800,1.268673828125,-4.575621862636506,-8.66375422284007,-0.4164544203428551
1774005583854752800,1.278752685546875,-4.57914857545793,-8.661446530419587,-0.4255963792301714
1774005583864830700,1.288830810546875,-4.577591116882861,-8.661911809843778,-0.4328166493399068
1774005583874910000,1.298909912109375,-4.573948084205389,-8.66371681343913,-0.43519411906097083
1774005583884988700,1.30898876953125,-4.5768496508657925,-8.662306946641205,-0.4327488813333213
1774005583895066600,1.319066650390625,-4.597599885688722,-8.651591491359472,-0.4271094506742433
1774005583905145900,1.329145751953125,-4.645492978981137,-8.626348329031467,-0.41939788991622623
1774005583915223800,1.339223876953125,-4.721136541247367,-8.585648654374479,-0.40974560688659545
1774005583925302800,1.349302734375,-4.816084231181442,-8.533253281226754,-0.39913894574157893
1774005583935381000,1.359381103515625,-4.91589455871582,-8.476538875836134,-0.3907108707446605
1774005583945460000,1.3694599609375,-5.003175367283821,-8.425414837798476,-0.3886063727460801
1774005583955538000,1.379537841796875,-5.062423675066232,-8.38959708996415,-0.3961269775092602
1774005583965616600,1.38961669921875,-5.085352130711079,-8.374758417272567,-0.4159513296589255
1774005583975694600,1.399694580078125,-5.07507272875905,-8.379529869458079,-0.4444062571076676
1774005583985773800,1.40977392578125,-5.041756150090694,-8.39817845582664,-0.4708258428039029
1774005583995851800,1.419851806640625,-4.9975931832373135,-8.42300134691596,-0.49749231593329457
1774005584005930800,1.4299306640625,-4.957927527803182,-8.444623980659246,-0.5269325280923396
1774005584016009000,1.440009033203125,-4.935629186755419,-8.455637542104721,-0.5586968358173966
1774005584026087700,1.450087646484375,-4.936539871859551,-8.452745912316441,-0.5933244970843196
1774005584036166700,1.460166748046875,-4.9605631370037795,-8.435856152313947,-0.6320926191568375
1774005584046244900,1.470244873046875,-5.0024423768341535,-8.407823651528357,-0.6741402743566781
1774005584056323800,1.48032373046875,-5.055028304117918,-8.372787409460544,-0.7166016249239444
1774005584066401800,1.49040185546875,-5.110491832664609,-8.335609479188918,-0.7555639543943107
1774005584076480500,1.50048046875,-5.162085826301574,-8.300877188503742,-0.7865710140112787
1774005584086558700,1.510558837890625,-5.206006216570735,-8.271669798719882,-0.804588316738978
1774005584096637700,1.5206376953125,-5.240603482699394,-8.249676578098535,-0.8057879017870873
1774005584106715600,1.530715576171875,-5.2648634792089455,-8.235784246346354,-0.7895926999200135
1774005584116795000,1.540794921875,-5.277653987199068,-8.230577325353027,-0.7578633173778653
1774005584126872800,1.550872802734375,-5.278816601237654,-8.23376004704237,-0.7139162582974881
1774005584136951800,1.560951904296875,-5.268514402931928,-8.24468826829195,-0.6620102030366659
1774005584147029800,1.57102978515625,-5.248476408031583,-8.261730588507652,-0.6063827891651541
1774005584157108700,1.581108642578125,-5.220831445258855,-8.283128765845298,-0.5505302978334948
1774005584167187700,1.591187744140625,-5.1880286613315345,-8.307081303840874,-0.49714737495314326
1774005584177265700,1.601265625,-5.151811685046553,-8.332398115926981,-0.44762207734901455
1774005584187345000,1.611344970703125,-5.113244930765032,-8.35845201011598,-0.401723701537773
1774005584197422800,1.6214228515625,-5.073271816816925,-8.384666647824645,-0.3600835676928982
1774005584207501600,1.63150146484375,-5.032725871416926,-8.410604222157597,-0.3221658884372562
1774005584217579800,1.641579833984375,-4.993295778304338,-8.435370999145507,-0.28618708655601366
1774005584227658800,1.65165869140625,-4.956945531028508,-8.457890289467572,-0.2513542033068836
1774005584237736700,1.66173681640625,-4.924764093869924,-8.477611473503709,-0.21723969746017827
1774005584247816000,1.67181591796875,-4.897161216673255,-8.494395435044169,-0.1828954562445171
1774005584257894000,1.681893798828125,-4.874075524640083,-8.508350310638546,-0.1474902438669931
1774005584267972600,1.69197265625,-4.856191785164177,-8.519112527671457,-0.11181656241216696
1774005584278050600,1.702050537109375,-4.844020285855233,-8.526421973901986,-0.0773109931549523
1774005584288129800,1.7121298828125,-4.837362289270758,-8.530430040499567,-0.045482150560012084
1774005584298208800,1.722208740234375,-4.834245326294004,-8.532300510546564,-0.017755629859009057
1774005584308286700,1.73228662109375,-4.8337084429383275,-8.532621413064003,0.0047011263248365135
1774005584318365700,1.74236572265625,-4.836588090027869,-8.530963124462962,0.02172062335819937
1774005584328443600,1.752443603515625,-4.843796706232428,-8.526832892790436,0.033817271899222394
1774005584338522600,1.762522705078125,-4.855095806621015,-8.520370418778061,0.04146853100447915
1774005584348600800,1.772600830078125,-4.868721596391499,-8.512572312247753,0.0453472356013488
1774005584358679800,1.7826796875,-4.884436467395723,-8.503551970446109,0.04747796401972882
1774005584368757800,1.7927578125,-4.902874041362106,-8.49292243988216,0.04972128140053246
1774005584378836700,1.802836669921875,-4.9249289290428155,-8.480134854501486,0.052626962547050786
1774005584388915000,1.8129150390625,-4.949720840471983,-8.46567144486308,0.0553128086641198
1774005584398993700,1.82299365234375,-4.974723764303326,-8.45099234664738,0.05701562596005387
1774005584409071600,1.833071533203125,-4.996404265713691,-8.43818313395679,0.05831088080182671
1774005584419150800,1.84315087890625,-5.00918191422224,-8.430579088693857,0.06183608665275387
1774005584429229800,1.853229736328125,-5.006270995211601,-8.432253159385919,0.06880165134905837
1774005584439307800,1.863307861328125,-4.984226921185851,-8.445214347767829,0.07895405678739771
1774005584449386800,1.87338671875,-4.94644284171462,-8.467271865797043,0.09161828064988367
1774005584459464700,1.883464599609375,-4.900539753195643,-8.493764151403308,0.10519402986671775
1774005584469543700,1.893543701171875,-4.85496458145678,-8.519731536352634,0.11777395471292547
1774005584479621600,1.90362158203125,-4.817544951383769,-8.540824593263864,0.1263545899230521
1774005584489700900,1.913700927734375,-4.79420236198008,-8.55394184899032,0.12684760673753917
1774005584499778800,1.92377880859375,-4.789028758734465,-8.556992468732595,0.11611098993676713
1774005584509857500,1.933857421875,-4.802570669613778,-8.54968945224285,0.09232037363778799
1774005584519935700,1.943935791015625,-4.831346682243049,-8.533771752142906,0.05653674270219635
1774005584530014700,1.9540146484375,-4.8699736422792075,-8.511965578526258,0.013688426085870014
1774005584540092700,1.9640927734375,-4.913042091894149,-8.48713859578371,-0.02968186629465781
1774005584550172000,1.974171875,-4.955305362606048,-8.462317458260058,-0.06714365044238511
1774005584560251000,1.9842509765625,-4.9927451586842535,-8.440041329044103,-0.09265809942586346
1774005584570328800,1.994328857421875,-5.022717103099823,-8.422139177128672,-0.1013245040901471
1774005584580407800,2.00440771484375,-5.04394693813324,-8.409560266062616,-0.09096762558827176
1774005584590485800,2.01448583984375,-5.057447055697441,-8.40170078473389,-0.06360567187485285
1774005584600564700,2.024564697265625,-5.065961786064506,-8.396774434247613,-0.02458066156497225
1774005584610642700,2.034642578125,-5.072920519161224,-8.392586334908009,0.0191809145634179
1774005584620722000,2.044721923828125,-5.080999780720472,-8.387505086120962,0.05985761705348268
1774005584630800000,2.0547998046875,-5.091113762977719,-8.381089958381652,0.09097473118249326
1774005584640878600,2.064878662109375,-5.102883111226558,-8.373716799265146,0.10874002277734689
1774005584650956500,2.07495654296875,-5.114359614008665,-8.366663373622298,0.11244751725946553
1774005584661035800,2.085035888671875,-5.122811216011643,-8.361608428320288,0.10337375563699751
1774005584671113700,2.09511376953125,-5.126676074746251,-8.35946031037569,0.08366633526473305
1774005584681192700,2.105192626953125,-5.1248196332246065,-8.360826922553777,0.05647476968215778
1774005584691271000,2.11527099609375,-5.1167029622644185,-8.365949087873101,0.025268522814835884
1774005584701349600,2.125349609375,-5.102224355056881,-8.374822130158543,-0.006644836279624724
1774005584711428600,2.1354287109375,-5.081829801803827,-8.38713742185235,-0.03622640855031786
1774005584721506800,2.1455068359375,-5.055592367741466,-8.402829496502875,-0.06185328438272699
1774005584731585800,2.155585693359375,-5.023211608618498,-8.422045069104433,-0.08308511044383049
1774005584741663700,2.165663818359375,-4.985125331330299,-8.444456222876905,-0.10027944288346916
1774005584751742700,2.17574267578125,-4.942651048216224,-8.469214232036471,-0.11398488289457745
1774005584761820700,2.185820556640625,-4.896599491137266,-8.495760293656588,-0.1255255186877679
1774005584771899600,2.195899658203125,-4.848114861692488,-8.523343881630897,-0.13698156320373528
1774005584781977600,2.2059775390625,-4.7982136434480545,-8.551311500486731,-0.1503676898662932
1774005584792056800,2.216056884765625,-4.748813068202137,-8.578547297936677,-0.166435703423433
1774005584802134800,2.226134765625,-4.702166467839479,-8.603804488790034,-0.1859110412060283
1774005584812213800,2.2362138671875,-4.659765834483504,-8.626300982758403,-0.2095381283732131
1774005584822292000,2.2462919921875,-4.622275769522786,-8.645736920112371,-0.2370403399406932
1774005584832370700,2.25637060546875,-4.590506712557375,-8.661764510327577,-0.26733859370118007
1774005584842449700,2.26644970703125,-4.564216379263997,-8.674601195546984,-0.29932710210354996
1774005584852527900,2.27652783203125,-4.542910848645866,-8.684633929261565,-0.33085820386093107
1774005584862606800,2.28660693359375,-4.5250385073468085,-8.692854645118118,-0.3587104892414063
1774005584872684800,2.296684814453125,-4.508618118421733,-8.70045693681538,-0.380516662858054
1774005584882763800,2.306763671875,-4.491187383410335,-8.708785789221524,-0.39582569300774484
1774005584892841700,2.316841796875,-4.471965673328936,-8.718263811662792,-0.40470162137001753
1774005584902920700,2.326920654296875,-4.452223154243827,-8.728198345699905,-0.40823048961590974
1774005584912998700,2.33699853515625,-4.434782482360303,-8.737077817726135,-0.40810642484482373
1774005584923078000,2.347077880859375,-4.422853267374634,-8.743218220177292,-0.40605694496911016
1774005584933155800,2.35715576171875,-4.418632434809208,-8.745438818836211,-0.4042007591757923
1774005584943234600,2.367234619140625,-4.422421597959101,-8.743467811024189,-0.4053955584509298
1774005584953312500,2.3773125,-4.433588596400618,-8.737475877133011,-0.4125410828240216
1774005584963391500,2.3873916015625,-4.450512843194604,-8.728205944484472,-0.42632458390686656
1774005584973470700,2.397470703125,-4.4717666436254975,-8.716471667549014,-0.443644625085406
1774005584983548700,2.407548583984375,-4.499194748777151,-8.701516090479492,-0.4596282300284132
1774005584993627600,2.417627685546875,-4.5382960483267905,-8.680647489973902,-0.469704729819484
1774005585003705600,2.42770556640625,-4.596399277727306,-8.649984640684723,-0.4703951232364401
1774005585013784600,2.43778466796875,-4.67847988730371,-8.606452957472206,-0.45955078087802975
1774005585023862500,2.447862548828125,-4.781977086657285,-8.550589031431079,-0.4364752083800733
1774005585033941500,2.45794140625,-4.8976674126297235,-8.48637696376145,-0.4057614691538736
1774005585044019500,2.46801953125,-5.0121483628123995,-8.420544601413607,-0.378414685610123
1774005585054098700,2.4780986328125,-5.110967048960924,-8.361517827427386,-0.365260239678435
1774005585064176600,2.4881767578125,-5.18167666195631,-8.31757113367319,-0.3723184145616367
1774005585074255400,2.49825537109375,-5.218230322849751,-8.293436809369922,-0.39920324314944444
1774005585084333600,2.50833349609375,-5.2229766405940055,-8.288425703209638,-0.43920700796414164
1774005585094412500,2.51841259765625,-5.2076586599528785,-8.295638118806481,-0.48277599097974594
1774005585104490500,2.528490478515625,-5.187688469591737,-8.305807046121359,-0.521374017182365
1774005585114569700,2.53856982421875,-5.175961206918955,-8.3112512830019,-0.5503690428571775
1774005585124648400,2.5486484375,-5.180238153585791,-8.307471764463186,-0.5669370966246351
1774005585134726400,2.558726318359375,-5.202562798118591,-8.29331055264175,-0.5698330372618511
1774005585144805600,2.5688056640625,-5.2387271674335,-8.271147236150503,-0.5605716167133301
1774005585154883600,2.578883544921875,-5.280907436037063,-8.245543423816562,-0.541679978836514
1774005585164962600,2.588962646484375,-5.320400657513737,-8.22178611613214,-0.5157216905090958
1774005585175040500,2.59904052734375,-5.349745409941673,-8.204649103370308,-0.48408013238087294
1774005585185119700,2.60911962890625,-5.3641065282493825,-8.19740863072276,-0.44636776643898335
1774005585195197700,2.61919775390625,-5.360640897965431,-8.201967901462316,-0.4020402201410383
1774005585205276400,2.6292763671875,-5.338309823691844,-8.218824928238988,-0.35178715625163165
1774005585215354600,2.639354736328125,-5.298362428706884,-8.246810082751512,-0.2964278735307045
1774005585225433600,2.64943359375,-5.244113536646962,-8.283311721196771,-0.23749268681807442
1774005585235511600,2.659511474609375,-5.179273692467809,-8.325532906332612,-0.1760635643978603
1774005585245590800,2.6695908203125,-5.107583836263418,-8.370790098163486,-0.11338712706398218
1774005585255669500,2.67966943359375,-5.032445300909877,-8.416782034009694,-0.05164816694303881
1774005585265747500,2.68974755859375,-4.957295075118542,-8.461416125506162,0.007116561998444376
1774005585275826700,2.69982666015625,-4.885165073931217,-8.503052204230427,0.060447522937762545
1774005585285904600,2.709904541015625,-4.818557927818596,-8.540535839450358,0.10552897004266269
1774005585295983600,2.719983642578125,-4.758892563667893,-8.573424548095463,0.1404063956864178
1774005585306061600,2.7300615234375,-4.707449376678467,-8.60135300398469,0.16441095613017678
1774005585316140500,2.740140625,-4.664503676660359,-8.624466168546675,0.17711323784757405
1774005585326218500,2.750218505859375,-4.630151325203478,-8.642916601994633,0.1790872230679728
1774005585336297500,2.76029736328125,-4.603438674844801,-8.65732039040029,0.17186077894577756
1774005585346375400,2.77037548828125,-4.582724388118088,-8.668559577295184,0.15840088379411027
1774005585356454700,2.78045458984375,-4.566594506572186,-8.677347279384731,0.14225753997843713
1774005585366532600,2.79053271484375,-4.553597077833116,-8.68441999424994,0.12645773977027275
1774005585376611600,2.800611572265625,-4.541481108103692,-8.690953195410966,0.112591337043792
1774005585386689500,2.810689453125,-4.528748175519705,-8.697731895765662,0.10138073692256584
1774005585396768500,2.8207685546875,-4.515008111719787,-8.704970614847541,0.0925193759417627
1774005585406847500,2.830847412109375,-4.5012662943542,-8.712166663831471,0.08445207881494425
1774005585416925700,2.84092578125,-4.488912131954729,-8.71862270810306,0.07522762470936868
1774005585427004700,2.851004638671875,-4.478704333934187,-8.723963484609127,0.06357256418969481
1774005585437082600,2.86108251953125,-4.470831116341055,-8.728100146022438,0.048278918838803656
1774005585447161600,2.87116162109375,-4.465782308518886,-8.730770826536416,0.02867939983740216
1774005585457239600,2.881239501953125,-4.46446888783276,-8.731488619416952,0.005153377304095192
1774005585467318500,2.891318603515625,-4.46736110214293,-8.729986398160458,-0.020041467782354445
1774005585477396500,2.901396484375,-4.47378645901531,-8.726607861638069,-0.043928664907161144
1774005585487475700,2.911475830078125,-4.4826805440887805,-8.721918242517113,-0.06402140393573791
1774005585497553700,2.9215537109375,-4.493196677406132,-8.716390419006347,-0.07819219643627293
1774005585507632400,2.93163232421875,-4.50443674108386,-8.710528248974681,-0.0844353560090065
1774005585517710600,2.941710693359375,-4.514355200769007,-8.705415436005591,-0.08192691685203463
1774005585527789600,2.95178955078125,-4.519475320261717,-8.70286399795711,-0.06983377087577246
1774005585537867500,2.961867431640625,-4.514882439513504,-8.70539965391457,-0.04736099570970982
1774005585547946800,2.97194677734375,-4.494577902631462,-8.716016909518837,-0.014803060238796751
1774005585558025500,2.982025390625,-4.453856308403611,-8.736872650542855,0.024455190288089214
1774005585568103400,2.992103515625,-4.3943397050738335,-8.766737627452612,0.06695997813828289
1774005585578182700,3.0021826171875,-4.3256990073069925,-8.800380953857303,0.10954463542480952
1774005585588260600,3.012260498046875,-4.262363722471893,-8.830668540093303,0.14807523154756053
1774005585598339600,3.022339599609375,-4.217769962985813,-8.851552338168025,0.17557563475044444
1774005585608417500,3.03241748046875,-4.202309651264548,-8.858691104006766,0.18596176674626766
1774005585618496800,3.042496826171875,-4.2206016792804,-8.850164683201909,0.17746080917622892
1774005585628574700,3.05257470703125,-4.26889575458914,-8.827459514918923,0.15124412564095108
1774005585638653400,3.0626533203125,-4.33632532300055,-8.795139546072482,0.1104425249794498
1774005585648731400,3.0727314453125,-4.410226717774569,-8.758811510628462,0.05926979352843482
1774005585658810600,3.082810546875,-4.4794779486551874,-8.723796895870565,0.005208997073516366
1774005585668888600,3.092888671875,-4.536219826574623,-8.694328224802018,-0.04190474873096682
1774005585678967600,3.102967529296875,-4.577836908337473,-8.672266615119575,-0.07474297843100502
1774005585689045800,3.113045654296875,-4.606258700701594,-8.657063200768828,-0.08956663621654734
1774005585699124500,3.12312451171875,-4.6272129336640235,-8.645911107635497,-0.08665800962769427
1774005585709203500,3.133203369140625,-4.646372392164171,-8.635776667112111,-0.0705474447036162
1774005585719281700,3.14328173828125,-4.66734532982707,-8.624609960931538,-0.04883279899505433
1774005585729360600,3.153360595703125,-4.692388001146912,-8.611098152929545,-0.029680359324160962
1774005585739438600,3.1634384765625,-4.722001049122214,-8.594923847720027,-0.019306922413129358
1774005585749517600,3.173517578125,-4.754654779967665,-8.57690128429532,-0.020095540623727717
1774005585759595500,3.183595458984375,-4.7865088848680255,-8.559129480761289,-0.03176943142474629
1774005585769674500,3.193674560546875,-4.8142231134846805,-8.543470723858475,-0.05256146869594231
1774005585779752400,3.20375244140625,-4.836277124382555,-8.530790690505505,-0.08010257836855016
1774005585789831700,3.213831787109375,-4.852347092434764,-8.521300393104553,-0.11203729249075986
1774005585799909600,3.22390966796875,-4.86274164519906,-8.514843179789185,-0.14687869697306305
1774005585809988600,3.233988525390625,-4.869148881892859,-8.51045225135386,-0.1843360469742678
1774005585820066800,3.24406689453125,-4.873103756998479,-8.507209908431768,-0.22499011065755037
1774005585830145500,3.2541455078125,-4.87592728998661,-8.50433522977829,-0.26832524838466193
1774005585840224500,3.264224609375,-4.8778211409091945,-8.501731769281625,-0.3127399980420247
1774005585850302700,3.274302734375,-4.877475980733335,-8.500214350455998,-0.3563124881889671
1774005585860381700,3.284381591796875,-4.872908526687324,-8.50103151205778,-0.397007559736073
1774005585870459600,3.294459716796875,-4.862263214032351,-8.505363988304138,-0.433084944887273
1774005585880538400,3.304538330078125,-4.845268240089714,-8.513519822230935,-0.4623247391033917
1774005585890616600,3.314616455078125,-4.8234699575185775,-8.524710493808984,-0.4835660453788936
1774005585900695600,3.324695556640625,-4.799707389137149,-8.537330905929208,-0.4971814233532175
1774005585910773500,3.3347734375,-4.776395487132668,-8.549937289524077,-0.5049895398208871
1774005585920852700,3.344852783203125,-4.755209491240978,-8.561522513377666,-0.5086214665824547
1774005585930930700,3.3549306640625,-4.735878475566208,-8.57216198081374,-0.5097702347587794
1774005585941009400,3.365009521484375,-4.717663896700739,-8.582226278710365,-0.5093326105264947
1774005585951087600,3.375087646484375,-4.699904368126392,-8.592067289245128,-0.5076082344193011
1774005585961166800,3.385166748046875,-4.682354682910442,-8.60176216930747,-0.5055997441411018
1774005585971244800,3.395244873046875,-4.664406061504781,-8.611638835677503,-0.503352988127619
1774005585981323800,3.40532373046875,-4.646612338399887,-8.621407365497946,-0.500709012957476
1774005585991401700,3.415401611328125,-4.630336910903454,-8.630289760133623,-0.49845845755171025
1774005586001480700,3.425480712890625,-4.617884256565571,-8.636986627423763,-0.4979802090480923
1774005586011559700,3.4355595703125,-4.611174529793859,-8.640486159977316,-0.499448856828548
1774005586021637600,3.4456376953125,-4.610804235176742,-8.64055688712597,-0.5016486318951472
1774005586031716900,3.455716796875,-4.616422075058519,-8.637490485292673,-0.502776284218207
1774005586041794800,3.465794921875,-4.627512793393433,-8.6316569568336,-0.5010024794787168
1774005586051873800,3.475873779296875,-4.643241985183954,-8.623528010913729,-0.4954395481219515
1774005586061951700,3.48595166015625,-4.662768523430824,-8.613507552158833,-0.48627559659853575
1774005586072030700,3.49603076171875,-4.685155419544875,-8.601997147107124,-0.47471696849092837
1774005586082108700,3.506108642578125,-4.707831946255267,-8.590333597320317,-0.46137017832491545
1774005586092187600,3.516187744140625,-4.726434647655487,-8.58087427957952,-0.4469884921532124
1774005586102265900,3.526265869140625,-4.736286764106154,-8.576184660458564,-0.43248138950355347
1774005586112344800,3.5363447265625,-4.736074874921143,-8.576967919790745,-0.41906387218888846
1774005586122422800,3.5464228515625,-4.730998886831104,-8.580304370737075,-0.40793782681226726
1774005586132501800,3.556501708984375,-4.730884028279781,-8.580810566693543,-0.39851361691746856
1774005586142579700,3.566579833984375,-4.7484684925481675,-8.571523682910204,-0.38910610242914406
1774005586152658700,3.57665869140625,-4.794120821176469,-8.54659674692452,-0.37745811553765085
1774005586162736600,3.586736572265625,-4.870420217002928,-8.503967565509676,-0.36321518024951216
1774005586172816000,3.59681591796875,-4.969487617215514,-8.446980772918462,-0.35084739118348807
1774005586182894600,3.60689453125,-5.076593654716015,-8.38309194585383,-0.3497789947669953
1774005586192972500,3.61697265625,-5.1765831382095815,-8.320952592805028,-0.36757425224184986
1774005586203051800,3.6270517578125,-5.2560220011055465,-8.269290794628859,-0.4042912870034575
1774005586213129700,3.637129638671875,-5.306933857697248,-8.234110175654292,-0.45416861291564997
1774005586223208700,3.647208740234375,-5.329495233595371,-8.216359999430178,-0.5082314808841795
1774005586233287000,3.657286865234375,-5.33248155592978,-8.211241341242193,-0.5572612135237083
1774005586243366000,3.667365966796875,-5.329712091216445,-8.210457497388123,-0.594080539616011
1774005586253443800,3.67744384765625,-5.332946835353971,-8.206742276257277,-0.6159802732676267
1774005586263522800,3.687522705078125,-5.350656679567694,-8.194553241291642,-0.624619360666722
1774005586273600800,3.697600830078125,-5.387673281797766,-8.170371570715307,-0.6232016028232872
1774005586283679700,3.7076796875,-5.444071460846066,-8.133535001227258,-0.6148669782634825
1774005586293757700,3.7177578125,-5.513801999676227,-8.087327376803755,-0.6029068201502785
1774005586303837000,3.7278369140625,-5.586825150310993,-8.038049843415617,-0.5895049387961626
1774005586313915000,3.737914794921875,-5.652995366311073,-7.99272484704554,-0.5747792249597609
1774005586323993600,3.74799365234375,-5.70538898589313,-7.9566662761926645,-0.5571211839985102
1774005586334071600,3.758071533203125,-5.740967664274573,-7.932620799216628,-0.534045355772227
1774005586344150800,3.76815087890625,-5.759742507371306,-7.920890029412508,-0.5052180513471365
1774005586354229800,3.778229736328125,-5.7655257669478654,-7.918726713898778,-0.4720920268148184
1774005586364307700,3.7883076171875,-5.763381156134605,-7.922379975709319,-0.4355685783965513
1774005586374386700,3.79838671875,-5.756452233654261,-7.929471395274996,-0.39639439627379175
1774005586384464600,3.808464599609375,-5.745116016125679,-7.939597067970037,-0.35613340529501436
1774005586394543600,3.818543701171875,-5.7295402613312,-7.952543058782815,-0.31591888380646704
1774005586404621800,3.828621826171875,-5.709681714650988,-7.968286571359634,-0.27626862687086684
1774005586414700800,3.83870068359375,-5.6861506169378755,-7.986329593050479,-0.23793297793148085
1774005586424778800,3.84877880859375,-5.658565859919786,-8.006858586338161,-0.20305364345842972
1774005586434857700,3.858857666015625,-5.627036164668202,-8.029740280231833,-0.17355731719797476
1774005586444935700,3.868935791015625,-5.592244252750278,-8.05447432399392,-0.15046068364568055
1774005586455014700,3.8790146484375,-5.554934805053472,-8.08053055627048,-0.1345642729289364
1774005586465092600,3.889092529296875,-5.515742612349987,-8.107489290344715,-0.12484880673629231
1774005586475171800,3.899171875,-5.475226477566361,-8.13498870716691,-0.11936534295706078
1774005586485249800,3.909249755859375,-5.433767508974671,-8.16277863136828,-0.11664690517806448
1774005586495328800,3.919328857421875,-5.391905804800987,-8.190496074855327,-0.11620900695114396
1774005586505407000,3.929406982421875,-5.350039424452185,-8.217882678952813,-0.11781808611559681
1774005586515485700,3.939485595703125,-5.308502129927278,-8.244723339605331,-0.12134827866889536
1774005586525563600,3.949563720703125,-5.266845592936873,-8.27131908558607,-0.12651457539089023
1774005586535643000,3.959642822265625,-5.224733128872513,-8.297887943559884,-0.13267242216719313
1774005586545721900,3.969721923828125,-5.18236815135181,-8.324311255583167,-0.13890126095362937
1774005586555799800,3.9797998046875,-5.140191389879584,-8.35033767724335,-0.14379989231592044
1774005586565878500,3.98987841796875,-5.098810162699222,-8.375627601322531,-0.1462007155131083
1774005586575956700,3.999956787109375,-5.059176655969023,-8.399631577244401,-0.14595446740076876
1774005586586035700,4.01003564453125,-5.022794259989261,-8.42148860426545,-0.14302748317131772
1774005586596113700,4.02011376953125,-4.991840318799018,-8.439956573370099,-0.13800168176540173
1774005586606193000,4.03019287109375,-4.967497904703021,-8.454415306833386,-0.13115158754177392
1774005586616270800,4.040270751953125,-4.949719086906313,-8.464957743635773,-0.12313142662546597
1774005586626349600,4.050349609375,-4.937676766934991,-8.472090079733729,-0.1158661209307611
1774005586636427500,4.060427490234375,-4.930550860577822,-8.476294545686244,-0.111772385343723
1774005586646506800,4.0705068359375,-4.9270682791590685,-8.47831757594645,-0.11186562571828253
1774005586656584700,4.080584716796875,-4.9235892048716545,-8.480262864795327,-0.11749059859374537
1774005586666663700,4.09066357421875,-4.914971598652005,-8.48508400134146,-0.12958060276485048
1774005586676742000,4.100741943359375,-4.897179921373724,-8.495068219739197,-0.14777889721579848
1774005586686820900,4.11082080078125,-4.870627430012822,-8.509914491215348,-0.16953472888469695
1774005586696898800,4.12089892578125,-4.841578153400123,-8.52600404075086,-0.1917329157599248
1774005586706977800,4.130977783203125,-4.820026831327379,-8.537742409339547,-0.21136318837590515
1774005586717055700,4.1410556640625,-4.8153044789806,-8.539986388874054,-0.22769421851709484
1774005586727134700,4.151134765625,-4.831817806886137,-8.530252930366993,-0.24231564999511465
1774005586737214000,4.1612138671875,-4.86647323294282,-8.510052438381313,-0.2585178113259375
1774005586747292000,4.1712919921875,-4.910301853275299,-8.484174485281109,-0.27945717551279814
1774005586757370600,4.18137060546875,-4.954397600111365,-8.457605042785406,-0.30534146702224385
1774005586767448600,4.191448486328125,-4.99364707596004,-8.433417526990175,-0.333670959726721
1774005586777527800,4.20152783203125,-5.024245043319463,-8.414139410546422,-0.35999815443176775
1774005586787605800,4.211605712890625,-5.043895500206947,-8.401542379301786,-0.3789270190464332
1774005586797684700,4.221684814453125,-5.05453905929625,-8.394778876516222,-0.38691261097285895
1774005586807763000,4.231762939453125,-5.061732770192623,-8.390674948328734,-0.381845061917603
1774005586817841700,4.241841552734375,-5.070561388814449,-8.386157763165235,-0.3635120443042367
1774005586827919600,4.251919677734375,-5.082378083336353,-8.38016115309894,-0.3357358928998932
1774005586837998600,4.26199853515625,-5.094722601124644,-8.373865852347016,-0.3042379627597518
1774005586848076800,4.272076904296875,-5.103497443732619,-8.369545651060342,-0.2745978258481249
1774005586858155800,4.28215576171875,-5.104589330622553,-8.369659048306941,-0.2497305658941157
1774005586868233700,4.292233642578125,-5.09627742935121,-8.3752950083673,-0.22972009832151233
1774005586878312700,4.302312744140625,-5.078845817556977,-8.38631675311923,-0.21305539751285685
1774005586888390700,4.312390625,-5.053634803932905,-8.401899522176384,-0.1980629407653585
1774005586898469600,4.3224697265625,-5.022617734378576,-8.420798868435622,-0.18392843428775668
1774005586908547600,4.332547607421875,-4.987908824568986,-8.441676821291447,-0.17099577788058667
1774005586918626800,4.342626708984375,-4.9515053858011955,-8.46328367294371,-0.1606448085296899
1774005586928704800,4.352704833984375,-4.915442723295092,-8.484401279774307,-0.15410693119354546
1774005586938783700,4.36278369140625,-4.88220300925523,-8.503604577416182,-0.1523020737286657
1774005586948862500,4.372862548828125,-4.853790569241345,-8.519788234975934,-0.15597688978388904
1774005586958940400,4.3829404296875,-4.8307522234812375,-8.53268278786242,-0.1659668986015953
1774005586969019400,4.393019287109375,-4.812626784203946,-8.542602708852291,-0.18151950998250393
1774005586979097600,4.40309765625,-4.798761632719636,-8.549982882231474,-0.20014473374178632
1774005586989176600,4.413176513671875,-4.787366086219251,-8.555905842539667,-0.2190669311536476
1774005586999254500,4.423254638671875,-4.7766146828413,-8.561457631447912,-0.23620186155624687
1774005587009333500,4.43333349609375,-4.7648485494628545,-8.567625506427884,-0.2497851821581833
1774005587019411500,4.443411376953125,-4.75153167951107,-8.574748490175605,-0.258878424799256
1774005587029490400,4.453490478515625,-4.736501283639669,-8.582879189661144,-0.26480743125574663
1774005587039568400,4.463568359375,-4.719712353663146,-8.59195155391097,-0.27029621966406703
1774005587049647600,4.473647705078125,-4.701290269526839,-8.601815360799431,-0.27754480255283415
1774005587059725600,4.4837255859375,-4.681353396913409,-8.61235487499237,-0.28750724751017986
1774005587069804500,4.493804443359375,-4.65914887162894,-8.623944190499186,-0.3005169146763161
1774005587079882500,4.503882568359375,-4.63264723367244,-8.637654151421785,-0.31603787054363636
1774005587089961500,4.51396142578125,-4.599952294033765,-8.654507086545228,-0.33214411548562345
1774005587100039400,4.524039306640625,-4.560343044961988,-8.67487007561624,-0.3468369864983484
1774005587110118400,4.534118408203125,-4.514218130385875,-8.698501711094378,-0.35818719601966437
1774005587120196600,4.544196533203125,-4.4626972019851205,-8.724792336648703,-0.36430779779180883
1774005587130275600,4.554275634765625,-4.407420720443129,-8.75284354213476,-0.36436248712111263
1774005587140353500,4.564353515625,-4.350420776109397,-8.781539475265145,-0.35889654986541714
1774005587150432500,4.5744326171875,-4.294164928141236,-8.809555609437822,-0.3496655975203961
1774005587160510500,4.584510498046875,-4.240806847441196,-8.835780184018612,-0.33901100558042524
1774005587170589400,4.59458935546875,-4.192588759978116,-8.859106114548444,-0.32987116558495905
1774005587180668700,4.604668701171875,-4.1509532657757395,-8.878885166251658,-0.3245974264331162
1774005587190746600,4.61474658203125,-4.1164071453124285,-8.894929707601666,-0.32528044026121494
1774005587200825300,4.624825439453125,-4.089070517836511,-8.907262534952164,-0.33252029185425486
1774005587210903300,4.6349033203125,-4.068420820778608,-8.916196952036023,-0.34609727404695
1774005587220982500,4.644982421875,-4.0523251337632535,-8.922759963813423,-0.3652542848616838
1774005587231060500,4.655060546875,-4.038106638796627,-8.928239272007346,-0.3881105885857716
1774005587241139500,4.665139404296875,-4.021446888157725,-8.934661414009332,-0.4125413750849664
1774005587251217700,4.6752177734375,-3.996066070924699,-8.944912174388765,-0.43633466739822174
1774005587261296400,4.68529638671875,-3.95570541896373,-8.961752834552525,-0.45801513227596874
1774005587271374600,4.69537451171875,-3.899040990194678,-8.985658026275038,-0.4751889333842322
1774005587281453600,4.70545361328125,-3.8314828269675374,-9.014125995868444,-0.48543943803533907
1774005587291531500,4.715531494140625,-3.762671741069853,-9.042965721383691,-0.487293212675862
1774005587301610500,4.725610595703125,-3.704625502553582,-9.067179540663957,-0.4820735783314332
1774005587311688400,4.7356884765625,-3.6707223561689255,-9.081433691465854,-0.47301418316103516
1774005587321767700,4.745767578125,-3.672641926054656,-9.081282884818314,-0.4608492597233504
1774005587331845600,4.755845703125,-3.7139047875523565,-9.065338881233334,-0.4437520309826359
1774005587341924400,4.76592431640625,-3.7845942345425483,-9.037062634819746,-0.42276331122871486
1774005587352002300,4.776002197265625,-3.866822728157043,-9.00309080711305,-0.4030138874787837
1774005587362081500,4.78608154296875,-3.9409371811598537,-8.97149973706305,-0.389350067252852
1774005587372159500,4.796159423828125,-3.9909120491623877,-8.949645632651448,-0.3832113453021273
1774005587382238500,4.806238525390625,-4.009471495942771,-8.941338992077112,-0.3834059910913929
1774005587392316700,4.816316650390625,-4.003168304145336,-8.944031299901008,-0.3864316590555012
1774005587402395400,4.8263955078125,-3.99009634886533,-8.949857229575514,-0.3867482872566208
1774005587412474400,4.836474365234375,-3.989395214858651,-8.950410771805048,-0.38112441949285564
1774005587422552600,4.846552490234375,-4.015561337250471,-8.939041821050644,-0.37307000011391933
1774005587432631600,4.856631591796875,-4.074667606213689,-8.91239755975306,-0.36965328700561073
1774005587442709500,4.86670947265625,-4.163310643045604,-8.87104965032041,-0.37645544130112973
1774005587452788500,4.87678857421875,-4.268276745907962,-8.820141300860048,-0.3966134093193337
1774005587462866400,4.886866455078125,-4.373366182889044,-8.766962083858251,-0.429442825525254
1774005587472945400,4.8969453125,-4.465044641894102,-8.71860283435881,-0.46874461608305573
1774005587483023400,4.9070234375,-4.533025706708431,-8.681447700440883,-0.5045021216301248
1774005587493102600,4.9171025390625,-4.570914707858861,-8.660190977400541,-0.5274534101612866
1774005587503180500,4.9271806640625,-4.578316216287017,-8.656050224334,-0.5312307002102956
1774005587513259500,4.937259521484375,-4.56053681396842,-8.666522518509625,-0.5131095352493226
1774005587523337700,4.947337646484375,-4.525784357278049,-8.68693811455071,-0.47409204152561724
1774005587533416400,4.95741650390625,-4.480215323019028,-8.713372532489895,-0.4185578588955104
1774005587543494400,4.967494384765625,-4.428984609736502,-8.742394628834724,-0.35359088120535015
1774005587553573600,4.97757373046875,-4.377128458032011,-8.770928649401665,-0.2862723536866717
1774005587563651600,4.987651611328125,-4.328414111484587,-8.796922922357917,-0.2221792544879019
1774005587573730600,4.99773046875,-4.285048724749684,-8.81938785214424,-0.16475786987170576
1774005587583808500,5.00780859375,-4.2469688772022725,-8.838558416560291,-0.11635150242806412
1774005587593887500,5.017887451171875,-4.212882483205199,-8.85527223547399,-0.07840456967847421
1774005587603965400,5.02796533203125,-4.181813975724578,-8.870186896011234,-0.051093405437376345
1774005587614044400,5.03804443359375,-4.152751839630305,-8.883914392590523,-0.03323052608640864
1774005587624122400,5.048122314453125,-4.125025336053967,-8.896853369140624,-0.02324049215252744
1774005587634201600,5.05820166015625,-4.098766566942632,-8.908990381658077,-0.019772128772083668
1774005587644279600,5.068279541015625,-4.074700923961401,-8.920017387107015,-0.02192994384350022
1774005587654358300,5.078358154296875,-4.053760135002434,-8.929531649905442,-0.02963106083931634
1774005587664437500,5.0884375,-4.036950162237883,-8.937092440548538,-0.04253046571414452
1774005587674515500,5.098515380859375,-4.0250189014256,-8.94236599703729,-0.060738012050627725
1774005587684594400,5.108594482421875,-4.018573963069915,-8.945082270258665,-0.08338940888633951
1774005587694672600,5.118672607421875,-4.01824838437736,-8.944953090921043,-0.10900466506290249
1774005587704751600,5.128751708984375,-4.024103540146351,-8.941950986495614,-0.13596431245259008
1774005587714829600,5.13882958984375,-4.036097929322719,-8.936118042558432,-0.16155520137287677
1774005587724908500,5.148908447265625,-4.0542493798241015,-8.927471794766188,-0.18356829573847352
1774005587734986500,5.158986572265625,-4.077575602614879,-8.916469923758505,-0.20081536301234737
1774005587745065500,5.1690654296875,-4.104871605819463,-8.903638499236106,-0.2135774486255832
1774005587755143400,5.179143310546875,-4.135664803490043,-8.889164568203688,-0.22230635146629063
1774005587765222700,5.18922265625,-4.16921256056577,-8.873329870212078,-0.22822918391032143
1774005587775300600,5.199300537109375,-4.20461003716141,-8.856493301701546,-0.2327305869827978
1774005587785379300,5.20937939453125,-4.240960868959129,-8.83902778763771,-0.23714120649928225
1774005587795457500,5.21945751953125,-4.2771866130724545,-8.821428418061137,-0.24178744313623754
1774005587805536500,5.22953662109375,-4.311014648394286,-8.804813383346795,-0.2465753167335875
1774005587815614500,5.239614501953125,-4.340845430773497,-8.790043099716305,-0.2501902558277361
1774005587825693700,5.249693603515625,-4.366930012361705,-8.777107630297541,-0.25035233278796076
1774005587835771600,5.259771728515625,-4.391409204579889,-8.765051866322755,-0.24448186985198406
1774005587845850400,5.269850341796875,-4.4181230239823455,-8.751956822428106,-0.23199708507647737
1774005587855928300,5.27992822265625,-4.453732974284887,-8.73432939580083,-0.2147800841473043
1774005587866007600,5.290007568359375,-4.50460508338809,-8.70862738378942,-0.19677737620053812
1774005587876085500,5.30008544921875,-4.57312390834093,-8.673166778829692,-0.18190147677110508
1774005587886164500,5.31016455078125,-4.655742862577736,-8.62925223377943,-0.17449642467899246
1774005587896242400,5.320242431640625,-4.744336215049028,-8.580770234683156,-0.17900347204096614
1774005587906321400,5.3303212890625,-4.829673780594766,-8.532633688023687,-0.19696425880845636
1774005587916399400,5.3403994140625,-4.90382768882513,-8.489521691527962,-0.225542410778068
1774005587926478300,5.350478271484375,-4.961950791969895,-8.454754329529404,-0.25797968586124476
1774005587936556500,5.360556640625,-5.003408591517806,-8.429388417604565,-0.2858183628414757
1774005587946636300,5.37063623046875,-5.030991010448337,-8.41235252712965,-0.3030421953702345
1774005587956714200,5.38071435546875,-5.050617501938342,-8.400484394681452,-0.30579626158503814
1774005587966793200,5.390793212890625,-5.0684272993952035,-8.390207330816983,-0.29300290405070406
1774005587976871200,5.40087109375,-5.087347688442469,-8.379577215731144,-0.2682290945338085
1774005587986950100,5.4109501953125,-5.106794731712341,-8.368676467010378,-0.23725661303987725
1774005587997028000,5.421028076171875,-5.123587461081147,-8.359250467017292,-0.20532533298376945
1774005588007107300,5.431107421875,-5.134328050804138,-8.353333936449886,-0.17571763703702017
1774005588017185300,5.441185302734375,-5.1359635430514805,-8.352835339277982,-0.14963050729869865
1774005588027264000,5.451263916015625,-5.127290991774201,-8.358522152742744,-0.127951037934795
1774005588037343200,5.46134326171875,-5.1088382202386855,-8.370046001797913,-0.11177597467345185
1774005588047421200,5.471421142578125,-5.0831163344830275,-8.385806465509534,-0.10280770098576321
1774005588057499100,5.4814990234375,-5.053720144128799,-8.40356891669333,-0.10162254632180556
1774005588067578400,5.491578369140625,-5.024565945836901,-8.420944414386152,-0.10868480372508056
1774005588077657300,5.5016572265625,-4.9996191361069675,-8.435559215193987,-0.12461102505819871
1774005588087735300,5.5117353515625,-4.981660870090127,-8.44578893278539,-0.14861705593983643
1774005588097814300,5.521814208984375,-4.972215580874681,-8.450784256854654,-0.178022278983891
1774005588107892200,5.531892333984375,-4.970425774848461,-8.45110515937209,-0.2099228168418631
1774005588117971200,5.54197119140625,-4.974072606918216,-8.448096625205874,-0.2421856669398956
1774005588128049200,5.552049072265625,-4.9802591865986585,-8.44353326281309,-0.27230960531309245
1774005588138128400,5.56212841796875,-4.986637489458919,-8.438887482833861,-0.2983372325496748
1774005588148206300,5.572206298828125,-4.99118623880446,-8.43542360611558,-0.3194950252601877
1774005588158285000,5.58228515625,-4.993594468989968,-8.43335030697286,-0.3361842577219009
1774005588168363000,5.592363037109375,-4.994241534721851,-8.432415656471251,-0.3497367630604654
1774005588178442200,5.602442138671875,-4.993705528149008,-8.432204644069076,-0.36223285468127575
1774005588188520200,5.612520263671875,-4.992458158436417,-8.432377078026533,-0.3751960523571819
1774005588198599200,5.62259912109375,-4.991755563125014,-8.432174248930812,-0.3888627586599439
1774005588208677400,5.632677490234375,-4.992643451875448,-8.43098357784152,-0.40301246270667757
1774005588218756000,5.642756103515625,-4.9959120982825755,-8.42833569368124,-0.4176308437110856
1774005588228834000,5.652833984375,-5.000777658492327,-8.42475491258502,-0.4314117509780451
1774005588238913300,5.662913330078125,-5.006404266202449,-8.420812312439084,-0.44296380321439355
1774005588248991200,5.6729912109375,-5.0127469132274385,-8.41662421309948,-0.45077118902970104
1774005588259070200,5.6830703125,-5.0202065815836185,-8.412058512619137,-0.45299032638389614
1774005588269148200,5.693148193359375,-5.02911820231378,-8.406989538791775,-0.4482000964326784
1774005588279227100,5.70322705078125,-5.0396927878201,-8.401287527757882,-0.43618068241290747
1774005588289305000,5.71330517578125,-5.0525820800095795,-8.394488369137049,-0.4175750584032386
1774005588299384000,5.723384033203125,-5.068614930921792,-8.385952011460065,-0.39413974921479816
1774005588309462300,5.733462158203125,-5.088683905482291,-8.37495832375884,-0.3684741602236405
1774005588319541200,5.743541259765625,-5.112755685943365,-8.361331949466466,-0.34386717690732327
1774005588329619200,5.753619140625,-5.140344534614682,-8.34526753437221,-0.32209205601606516
1774005588339698400,5.763698486328125,-5.170359149128198,-8.327425003689527,-0.3029224231817759
1774005588349776400,5.7737763671875,-5.2010570697307585,-8.3088991669178,-0.2856501301351003
1774005588359855000,5.783855224609375,-5.230090271991491,-8.291211534535885,-0.26900068169450386
1774005588369933000,5.79393310546875,-5.254240962907671,-8.276427806901932,-0.2531394062232226
1774005588380012300,5.80401220703125,-5.269783399954438,-8.266936340457201,-0.23986151657495647
1774005588390090200,5.81409033203125,-5.2741427642077205,-8.264368535795807,-0.23239949186490846
1774005588400169200,5.824169189453125,-5.267665677148103,-8.268477140158414,-0.23314461114378646
1774005588410247200,5.8342470703125,-5.2546360997051,-8.276547049367426,-0.24074162387773393
1774005588420326100,5.844326171875,-5.240857165199518,-8.284943706312776,-0.2520066758662462
1774005588430404000,5.854404052734375,-5.232508439049124,-8.289853105664253,-0.2637873492266983
1774005588440483000,5.864483154296875,-5.234049823272228,-8.28855312898159,-0.27386467100167644
1774005588450561300,5.874561279296875,-5.246575542846322,-8.280408400970696,-0.28049420867664737
1774005588460640300,5.88464013671875,-5.267313210448623,-8.267131570768356,-0.28343808010881766
1774005588470718200,5.89471826171875,-5.291689526814222,-8.251514899441599,-0.28445394262047485
1774005588480797200,5.904797119140625,-5.314637856203317,-8.236645247089863,-0.287556164685823
1774005588490875100,5.914875244140625,-5.331954901707172,-8.225120228990912,-0.2967273496676236
1774005588500954000,5.9249541015625,-5.339841271042824,-8.219289623141288,-0.31585856845397503
1774005588511032000,5.935031982421875,-5.335466709220409,-8.22083159188628,-0.34799667792748656
1774005588521111300,5.945111328125,-5.320094952565431,-8.22877699793279,-0.39266938440129157
1774005588531189200,5.955189208984375,-5.300246927279233,-8.238934234809875,-0.4446675018597394
1774005588541268200,5.965268310546875,-5.283723662501573,-8.246585041823982,-0.49647375000789756
1774005588551346200,5.97534619140625,-5.277436545056104,-8.247781558132171,-0.541438388632983
1774005588561425200,5.985425048828125,-5.288322096207738,-8.23869984153211,-0.5725848201880231
1774005588571503000,5.995503173828125,-5.32091795938611,-8.216783193278312,-0.5853929003674536
1774005588581582300,6.005582275390625,-5.373384644204378,-8.182979123353958,-0.5796347021669149
1774005588591660300,6.015660400390625,-5.438405105647444,-8.141357657676934,-0.5589494588715955
1774005588601739300,6.0257392578125,-5.505557902944088,-8.098103622362018,-0.5290784175472334
1774005588611817200,6.035817138671875,-5.566510676556826,-8.058581759312748,-0.49356703224834053
1774005588621896200,6.045896240234375,-5.613554751804471,-8.02825325654447,-0.4533526568902656
1774005588631974100,6.05597412109375,-5.640087953943014,-8.011968476697803,-0.41005934901088475
1774005588642053000,6.06605322265625,-5.642327841824293,-8.012523772493005,-0.3660319181706756
1774005588652131300,6.07613134765625,-5.62036209373176,-8.029774767023325,-0.32346703416369854
1774005588662210300,6.086210205078125,-5.577942171153426,-8.060800019884109,-0.2836342602680437
1774005588672288300,6.096288330078125,-5.521542238539457,-8.10080411349237,-0.2448246736739762
1774005588682367000,6.106366943359375,-5.45752949283421,-8.145185691532491,-0.20424595851553604
1774005588692445200,6.116445068359375,-5.39070695040524,-8.19052822355926,-0.16096551011772825
1774005588702524200,6.126524169921875,-5.325061050540208,-8.234128295832871,-0.11502410801551304
1774005588712602000,6.13660205078125,-5.263762239968776,-8.273980413749813,-0.0665683713050792
1774005588722681300,6.146681396484375,-5.209565370357036,-8.308464282631874,-0.015569069325365125
1774005588732759300,6.15675927734375,-5.164098919689655,-8.336735268348455,0.0363548366859788
1774005588742838300,6.16683837890625,-5.127209158709645,-8.35910433654487,0.08646350996890105
1774005588752916200,6.176916259765625,-5.097917597773671,-8.376402092826366,0.13226334817595778
1774005588762995200,6.1869951171875,-5.074976867169141,-8.389614041098952,0.1713730684940703
1774005588773073200,6.1970732421875,-5.056690684372186,-8.399960078546405,0.20232943910341708
1774005588783152000,6.207152099609375,-5.041926245960593,-8.408262627467513,0.22468237814893946
1774005588793230300,6.217230224609375,-5.030085586041212,-8.41496592449844,0.23870282979281618
1774005588803309300,6.227309326171875,-5.021396083629131,-8.419948973608017,0.2458039853012189
1774005588813387300,6.23738720703125,-5.016292038488388,-8.422963352993131,0.24675120302345602
1774005588823466200,6.24746630859375,-5.01539187477827,-8.423640229341387,0.24191245775539427
1774005588833544200,6.257544189453125,-5.018588624992966,-8.422021688228845,0.23174195953793822
1774005588843623200,6.267623046875,-5.024365454828739,-8.418952948307991,0.2176408986722119
1774005588853701000,6.277701171875,-5.030856570413708,-8.41546452167034,0.20206629465520382
1774005588863780400,6.2877802734375,-5.03629963825047,-8.412531390827894,0.18813001416344194
1774005588873858300,6.2978583984375,-5.03933973659873,-8.4109327234596,0.17793434497211127
1774005588883937000,6.30793701171875,-5.039684019991755,-8.410872517704963,0.17087945802453905
1774005588894015200,6.31801513671875,-5.036581962323188,-8.412839433863759,0.1654565013940446
1774005588904094200,6.32809423828125,-5.030413502821326,-8.41663941066861,0.1597383794755675
1774005588914172200,6.338172119140625,-5.022539992967248,-8.421482174524664,0.1520646299772896
1774005588924251400,6.34825146484375,-5.015310041713715,-8.42596428837478,0.14200174771961754
1774005588934329300,6.358329345703125,-5.011067581838369,-8.4286893294245,0.12948676873524673
1774005588944408000,6.368407958984375,-5.010723298445344,-8.429116030403971,0.11414629313452168
1774005588954486000,6.378486083984375,-5.0134191134005786,-8.427745911094545,0.0954679052827414
1774005588964565000,6.38856494140625,-5.016686006242036,-8.426030339348316,0.07241590089004021
1774005588974643000,6.398642822265625,-5.018351893627643,-8.425233636012672,0.04438546876395121
1774005588984722000,6.408721923828125,-5.01651123419702,-8.426439504671096,0.011405783624964532
1774005588994800000,6.418800048828125,-5.010938402500749,-8.429722764125465,-0.02549813716949429
1774005589004879000,6.428879150390625,-5.00586241441071,-8.432526131108403,-0.06496978156859987
1774005589014957000,6.43895703125,-5.009268423461914,-8.43010504144132,-0.10467965973694808
1774005589025036000,6.4490361328125,-5.0297547466516495,-8.417360710680484,-0.14132791271181777
1774005589035114000,6.459114013671875,-5.072735225722194,-8.390968378317355,-0.17143840708155184
1774005589045193000,6.46919287109375,-5.1378457035362715,-8.350822245889901,-0.1915528099526651
1774005589055271000,6.47927099609375,-5.216233011552691,-8.301853340059518,-0.20130402331212535
1774005589065350100,6.48935009765625,-5.295912697467208,-8.251210363537073,-0.2030039773641154
1774005589075428000,6.499427978515625,-5.365989273256063,-8.205927452743053,-0.19826131288167087
1774005589085506800,6.5095068359375,-5.417351796224713,-8.17236420583725,-0.18747270103218033
1774005589095585000,6.5195849609375,-5.443918900632858,-8.155067618599533,-0.17033846474932507
1774005589105664000,6.5296640625,-5.443995473000407,-8.155488474360109,-0.14597180212805977
1774005589115742000,6.539741943359375,-5.421445787540078,-8.171005776965618,-0.11393525333288125
1774005589125821200,6.5498212890625,-5.384367810511589,-8.195944987910986,-0.07388479526566807
1774005589135899100,6.559899169921875,-5.3406525874257085,-8.22478822055757,-0.02600378057011403
1774005589145977900,6.569977783203125,-5.2955210678011175,-8.253918453451991,0.02590868159860838
1774005589156055800,6.580055908203125,-5.2519075515240425,-8.281421961927414,0.07675160570652223
1774005589166135000,6.590135009765625,-5.211246455311775,-8.306538283005356,0.12125067264647223
1774005589176213000,6.600212890625,-5.173782109314203,-8.329368538972735,0.15487404310852287
1774005589186292000,6.6102919921875,-5.138833545529842,-8.350589021655917,0.17446851375875994
1774005589196370000,6.620369873046875,-5.1060886292696,-8.370550444188714,0.1792454275706783
1774005589206449200,6.63044921875,-5.075565480712056,-8.38930015284419,0.16931277496339753
1774005589216527000,6.640527099609375,-5.0477965992987155,-8.406479251182079,0.14577517444426194
1774005589226605800,6.650605712890625,-5.023130944597721,-8.42176800572872,0.11121577437426894
1774005589236684000,6.66068408203125,-5.00125579739809,-8.4352353900671,0.0680720584328752
1774005589246763000,6.670762939453125,-4.98195313103497,-8.446901277941464,0.019551330194831823
1774005589256841000,6.680841064453125,-4.964530871590972,-8.457116967007517,-0.031641391448152714
1774005589266920200,6.690920166015625,-4.948407419785857,-8.466219141873717,-0.08247117066341451
1774005589276998100,6.700998046875,-4.933711370435357,-8.4741943585366,-0.13008471636208704
1774005589287076900,6.711076904296875,-4.9211570092886685,-8.480750356051326,-0.17169740507761017
1774005589297154800,6.72115478515625,-4.911231827601791,-8.485744511076808,-0.2057532578059472
1774005589307234000,6.731234130859375,-4.90347346855998,-8.48954507240355,-0.2323114665215835
1774005589317312000,6.74131201171875,-4.897464875794947,-8.492440209323167,-0.2523648781867698
1774005589327391000,6.751390869140625,-4.892701899176836,-8.494721598258614,-0.26751015087580304
1774005589337469200,6.76146923828125,-4.888972064998746,-8.496512573328614,-0.27859425680683925
1774005589347548000,6.7715478515625,-4.887689623972773,-8.497016431197524,-0.2856315532987937
1774005589357625900,6.7816259765625,-4.888740302069485,-8.496293377619981,-0.2891303917326033
1774005589367705000,6.791705078125,-4.8913779570966955,-8.494742056524753,-0.29011945756888013
1774005589377783000,6.801782958984375,-4.894273386277258,-8.493110655930638,-0.2890233328952454
1774005589387862000,6.811862060546875,-4.896189156770706,-8.492105862802267,-0.2860792422673665
1774005589397940000,6.82193994140625,-4.895589729572833,-8.492594523102044,-0.2818410019094124
1774005589408019000,6.83201904296875,-4.891596276022494,-8.49504893051684,-0.2771677128687501
1774005589418097000,6.842096923828125,-4.884255557870865,-8.4994264149487,-0.27237428631344807
1774005589428176000,6.85217578125,-4.87399749096781,-8.50545225110948,-0.26796523769954217
1774005589438253800,6.86225390625,-4.861614686995744,-8.512655898877977,-0.2641228099924512
1774005589448332000,6.87233203125,-4.84771008028388,-8.520706518864632,-0.26007645721109585
1774005589458411000,6.882410888671875,-4.832635845270753,-8.529422324761748,-0.2548638736619614
1774005589468489000,6.892489013671875,-4.817569209042191,-8.538163849622011,-0.2473207100071013
1774005589478568200,6.902568115234375,-4.803663433286547,-8.546285196757315,-0.23707016882337628
1774005589488646100,6.912646240234375,-4.792127017010748,-8.553089031553268,-0.22485371612785382
1774005589498724900,6.922724853515625,-4.7835558802813285,-8.558224056354165,-0.2116143683916889
1774005589508802800,6.932802734375,-4.778222410298883,-8.56151608363688,-0.19855832306686788
1774005589518882000,6.942882080078125,-4.776096211925148,-8.562954592007397,-0.18737570693111047
1774005589528960000,6.9529599609375,-4.776386427043378,-8.562948162266611,-0.18014586527543142
1774005589539039000,6.9630390625,-4.776901975350081,-8.562701494029163,-0.1781291186255403
1774005589549117200,6.9731171875,-4.775941021363437,-8.563170280584693,-0.18132203291533514
1774005589559196000,6.98319580078125,-4.7745630110085004,-8.56384540336728,-0.1857016362390481
1774005589569273900,6.99327392578125,-4.7773356905922295,-8.562295835837721,-0.18585887262737377
1774005589579353000,7.00335302734375,-4.7901878656417125,-8.55528274220526,-0.17781928549138828
1774005589589431000,7.01343115234375,-4.816712007690966,-8.540748605418205,-0.1589538780343719
1774005589599510000,7.023510009765625,-4.854460431326926,-8.519872990649938,-0.127923656737525
1774005589609588000,7.033587890625,-4.895124450148642,-8.497085989302397,-0.08756332443696446
1774005589619667000,7.0436669921875,-4.929522102051973,-8.477501583388447,-0.04647777400123886
1774005589629745000,7.053744873046875,-4.949936529049277,-8.465713530439137,-0.014062029188213636
1774005589639824000,7.063823974609375,-4.94994821948707,-8.465718206614255,0.00376037259271543
1774005589649902000,7.073902099609375,-4.926796476480365,-8.47921189443767,0.005416031986896996
1774005589659981000,7.08398095703125,-4.8840468835562465,-8.50390677523315,-0.006450369157694513
1774005589670059000,7.09405908203125,-4.83169914894253,-8.533720314216612,-0.025854704655357635
1774005589680138000,7.104137939453125,-4.779971884314715,-8.562717860642074,-0.045941059608920476
1774005589690216200,7.11421630859375,-4.73768347916156,-8.586081785094738,-0.06278194810154382
1774005589700295000,7.124294921875,-4.711985851064324,-8.600109141403436,-0.07554514795963187
1774005589710372900,7.134372802734375,-4.707361406134068,-8.60256354881823,-0.08385337313627823
1774005589720452000,7.1444521484375,-4.72396621171534,-8.593415781244635,-0.08798524877661838
1774005589730530000,7.154530029296875,-4.756594223597645,-8.575374513119458,-0.09029358051791786
1774005589740609000,7.164609130859375,-4.797054244279861,-8.552761699295043,-0.09451692470083944
1774005589750687000,7.17468701171875,-4.837144262605905,-8.530047763183713,-0.10343424451942555
1774005589760766000,7.184765869140625,-4.871520287199318,-8.51028332452774,-0.11726608738917857
1774005589770844000,7.194843994140625,-4.897669458456337,-8.495030810338259,-0.13297026346945204
1774005589780923000,7.2049228515625,-4.914933020207285,-8.484832072407007,-0.14649144208799114
1774005589791001000,7.2150009765625,-4.924314012014865,-8.479260409754515,-0.15382541083842516
1774005589801080000,7.225080078125,-4.927255910685658,-8.477582831931114,-0.1520815537126269
1774005589811158000,7.235157958984375,-4.924720254728197,-8.479265085929631,-0.13994613036406225
1774005589821237000,7.245237060546875,-4.916738023802638,-8.484238198167086,-0.11740630871062166
1774005589831315000,7.25531494140625,-4.903039753317833,-8.49254717682898,-0.08504799888147972
1774005589841394000,7.265393798828125,-4.883398648780584,-8.504163380342721,-0.04471268229116685
1774005589851472000,7.275471923828125,-4.857968731708825,-8.518833710730075,0.0009743191452969768
1774005589861551000,7.285551025390625,-4.827672669905424,-8.53589298208058,0.04995058294464834
1774005589871629000,7.295629150390625,-4.794074643947184,-8.554365042838453,0.1003667923733592
1774005589881708000,7.3057080078125,-4.758697625617683,-8.57335791260004,0.15072552686063573
1774005589891786000,7.315785888671875,-4.7237589987054465,-8.591664553663135,0.1994819407178089
1774005589901865000,7.325864990234375,-4.691555057454109,-8.608096048504114,0.2457329293590039
1774005589911943000,7.33594287109375,-4.664105617253482,-8.62166046347618,0.2889290787405334
1774005589922022100,7.346022216796875,-4.6432548446655275,-8.631481600266694,0.32878928863238543
1774005589932100000,7.35610009765625,-4.630512559731304,-8.63689894914031,0.3643088207051158
1774005589942178000,7.366177978515625,-4.626800845731794,-8.63756998026967,0.3943234352186322
1774005589952257300,7.37625732421875,-4.631783602580428,-8.633816180694103,0.4173352582979947
1774005589962336000,7.3863359375,-4.643465272545814,-8.626765677660703,0.43304954478032887
1774005589972414000,7.3964140625,-4.659356669160723,-8.617724293071031,0.4422779763747006
1774005589982492000,7.406491943359375,-4.6785766256764525,-8.6070935934633,0.4463660128733143
1774005589992571100,7.416571044921875,-4.700231992645562,-8.595279821550845,0.44650995138864963
1774005590002649000,7.426649169921875,-4.723860705514252,-8.582452488681673,0.44389900170527397
1774005590012728000,7.43672802734375,-4.749351705123484,-8.568567755714058,0.4400931431489065
1774005590022806300,7.44680615234375,-4.776644785718619,-8.553545543149113,0.436946113827452
1774005590032885000,7.456885009765625,-4.805862989157438,-8.537208740854263,0.43605435261949893
1774005590042963000,7.466962890625,-4.836773383466899,-8.519638597372174,0.43792241151370104
1774005590053042200,7.477042236328125,-4.868958620017767,-8.501041448929906,0.4426230269527063
1774005590063120100,7.4871201171875,-4.9014437162980435,-8.481959731841087,0.4501016557376831
1774005590073199000,7.49719921875,-4.933652918246388,-8.46272545453906,0.46014556843340393
1774005590083277000,7.507277099609375,-4.966029001194238,-8.443072659564018,0.47271874387841667
1774005590093356000,7.51735595703125,-4.9993198608994485,-8.42255184958279,0.48766697789169844
1774005590103434000,7.52743408203125,-5.032794844999909,-8.401692016905546,0.5029268351374194
1774005590113513000,7.537512939453125,-5.063884395268559,-8.382220423716307,0.5155932783564552
1774005590123591200,7.547591064453125,-5.089967515552043,-8.36602566024065,0.5217484399853274
1774005590133670100,7.557670166015625,-5.109655381840467,-8.354242283466458,0.518106539819017
1774005590143748000,7.567748046875,-5.12302222841382,-8.34696440141797,0.5031962266633286
1774005590153827000,7.5778271484375,-5.131407194921374,-8.343250933852792,0.4787616407718509
1774005590163905000,7.587905029296875,-5.137746919336915,-8.341095217123627,0.44729982312470673
1774005590173984000,7.59798388671875,-5.1463902445197105,-8.337581071522832,0.4120610442221164
1774005590184062000,7.60806201171875,-5.160853069636225,-8.330280393120645,0.377384356181696
1774005590194141200,7.61814111328125,-5.181318934559822,-8.31887812461853,0.3472636874778196
1774005590204219100,7.62821923828125,-5.204126978695392,-8.305613569375872,0.3228543821580708
1774005590214298000,7.638298095703125,-5.223752885663509,-8.29403360621929,0.3029816425557248
1774005590224376000,7.6483759765625,-5.234830159994959,-8.2876740080595,0.28529136155899615
1774005590234454300,7.658454345703125,-5.2342503142803904,-8.288597552645205,0.2686366889540106
1774005590244533000,7.668532958984375,-5.220825015518069,-8.297531385207176,0.25366052575418724
1774005590254611000,7.67861083984375,-5.196084542015194,-8.313370759373903,0.24283191068787127
1774005590264690200,7.688690185546875,-5.164356693843007,-8.333243919101356,0.23842428684607148
1774005590274768100,7.69876806640625,-5.130248672536015,-8.354188507452607,0.24182266058009116
1774005590284847000,7.70884716796875,-5.097404972076416,-8.37391378314197,0.2537969202838838
1774005590294925000,7.718925048828125,-5.068475230190158,-8.390802958622574,0.2745473195035942
1774005590305004000,7.729004150390625,-5.045193138802051,-8.403839550328254,0.30314801209857684
1774005590315082000,7.73908203125,-5.027564543130993,-8.413102468714117,0.3371807214133441
1774005590325161000,7.749160888671875,-5.0127328847020864,-8.420455169564486,0.3725892673922702
1774005590335239200,7.7592392578125,-4.997567464274168,-8.428034080386162,0.4036552541222423
1774005590345318100,7.769318115234375,-4.980203072497249,-8.43723153232038,0.42553504096437245
1774005590355396000,7.77939599609375,-4.961554486128688,-8.447710840758681,0.43536647995319216
1774005590365475000,7.78947509765625,-4.943222710624337,-8.458588208603858,0.43267084766104813
1774005590375553000,7.799552978515625,-4.927321377137303,-8.468626203015447,0.41746264753732826
1774005590385632000,7.809632080078125,-4.91539011632502,-8.47686445452869,0.38999041098300363
1774005590395710000,7.8197099609375,-4.908457686713338,-8.482545422774553,0.35192572447210546
1774005590405789200,7.8297890625,-4.906740361401439,-8.485319563663005,0.3060010086432099
1774005590415867100,7.8398671875,-4.909973936495184,-8.485117319089174,0.25559322911612686
1774005590425946000,7.849946044921875,-4.917522452178597,-8.48214151814878,0.204041467185691
1774005590436024000,7.860024169921875,-4.9284156021147965,-8.476875560444594,0.1539465164674446
1774005590446102000,7.87010205078125,-4.941760236856341,-8.469825057411194,0.10707563322908245
1774005590456181000,7.880180908203125,-4.956641579645872,-8.461562255978583,0.06367065426930785
1774005590466259000,7.890259033203125,-4.972619485500455,-8.452391692051291,0.02296811865166528
1774005590476338200,7.900338134765625,-4.989540809684992,-8.442428516441582,-0.016298841479705877
1774005590486416100,7.910416015625,-5.00821160788536,-8.431202189028262,-0.05494150483342818
1774005590496495000,7.9204951171875,-5.02904455255568,-8.41845084400475,-0.09364376772865653
1774005590506573000,7.930572998046875,-5.051272750976682,-8.404616964441537,-0.13206904944656417
1774005590516652000,7.940652099609375,-5.073544204017519,-8.390516542896627,-0.16959181110048666
1774005590526730000,7.95072998046875,-5.094791574707627,-8.376849836593866,-0.20463689406188204
1774005590536809000,7.96080908203125,-5.114086642286181,-8.364269756484031,-0.23557216708427295
1774005590546887200,7.97088720703125,-5.130364992392063,-8.35354787146151,-0.2607076495204121
1774005590556966100,7.980966064453125,-5.142327232864499,-8.345634614118934,-0.2779174900564365
1774005590567044000,7.991044189453125,-5.1486722179770466,-8.341469895654916,-0.2853596958211623
1774005590577123000,8.001123046875,-5.148406260517239,-8.341730592417717,-0.28255444740839303
1774005590587201000,8.011200927734375,-5.140934317201376,-8.346735268837213,-0.270528768044617
1774005590597280000,8.021280029296875,-5.126503640788793,-8.356191079446672,-0.25180231240056455
1774005590607358000,8.03135791015625,-5.106232421654463,-8.369237608024477,-0.22944433185374363
1774005590617437200,8.041437255859375,-5.081782455530762,-8.3847145786196,-0.2059842170176096
1774005590627515100,8.05151513671875,-5.0554485753566025,-8.401126199716328,-0.18414174824487417
1774005590637593000,8.061593017578126,-5.0295764674752945,-8.417007074937224,-0.16651636744420975
1774005590647672000,8.071672119140626,-5.005983994963765,-8.431288113746046,-0.15455487589044495
1774005590657750000,8.08175,-4.98579519341588,-8.443351476505399,-0.14848661622689105
1774005590667829000,8.0918291015625,-4.970272045591473,-8.452508596429228,-0.14791366604398934
1774005590677907000,8.101906982421875,-4.960457923063635,-8.458197163459658,-0.15212596824308858
1774005590687986200,8.111986083984375,-4.956038937577605,-8.460624682867527,-0.16091330500645562
1774005590698064100,8.122064208984375,-4.9549359447717665,-8.461006375661492,-0.17425180226815865
1774005590708143000,8.13214306640625,-4.9536014812976115,-8.46139975889325,-0.19215274860719217
1774005590718221300,8.14222119140625,-4.948661102285981,-8.463788115334511,-0.21311967665441334
1774005590728300000,8.152300048828126,-4.937373984596133,-8.469815705060958,-0.2344400760481134
1774005590738378000,8.1623779296875,-4.92169535394907,-8.47840876136124,-0.2527338758959435
1774005590748457200,8.172457275390625,-4.9097547407865525,-8.485014443236588,-0.26310906637264414
1774005590758535200,8.18253515625,-4.912711252504587,-8.483393564036488,-0.2601968869866803
1774005590768614100,8.1926142578125,-4.939651281878352,-8.468384795475005,-0.2381101976619102
1774005590778692000,8.202692138671875,-4.992019182497263,-8.438781684371829,-0.1925943914274685
1774005590788770000,8.21277001953125,-5.062084652370214,-8.398191315308212,-0.12673602698869071
1774005590798849000,8.22284912109375,-5.137458750045299,-8.35310012769401,-0.051157300986442715
1774005590808927000,8.232927001953126,-5.205710448494553,-8.310871343773602,0.01971759927298408
1774005590819006000,8.243005859375,-5.255500607579946,-8.279179735958575,0.07267668898438569
1774005590829084200,8.253084228515625,-5.278971499538422,-8.263960539516805,0.09899464550362899
1774005590839163100,8.2631630859375,-5.274596353194117,-8.266772674328088,0.09745334347891621
1774005590849241000,8.273240966796875,-5.249100677409768,-8.283223458391427,0.07441905740599614
1774005590859320000,8.283320068359375,-5.214695718982815,-8.30516699465215,0.03918206860169302
1774005590869398000,8.29339794921875,-5.184738387614488,-8.323992691153288,0.002126569408137584
1774005590879477000,8.30347705078125,-5.169167893517017,-8.333618597632647,-0.029900762892479543
1774005590889555000,8.313554931640626,-5.1731677768081425,-8.33101864426732,-0.053370643354090856
1774005590899634200,8.32363427734375,-5.197485056462884,-8.31576379199028,-0.06799706153448205
1774005590909712100,8.333712158203125,-5.2373102863728995,-8.290663837525248,-0.07654454339367803
1774005590919791000,8.343791015625,-5.28331800431013,-8.261349480235577,-0.08393517880137077
1774005590929869000,8.353869140625,-5.325386629232764,-8.234195515850185,-0.09304177411436103
1774005590939947000,8.363947021484375,-5.3561564460277555,-8.21408270214796,-0.10396076174471526
1774005590950025500,8.374025390625,-5.372063040211796,-8.203554878392815,-0.11406001222371123
1774005590960103400,8.384103515625,-5.373453033265471,-8.202562944746017,-0.11980623685866594
1774005590970182400,8.394182373046876,-5.363601501336693,-8.209042369893194,-0.11743824735200031
1774005590980260400,8.40426025390625,-5.345876459553837,-8.220776062306761,-0.10410798819568008
1774005590990339600,8.414339599609375,-5.322464019784331,-8.236227313938736,-0.07952828561193309
1774005591000417500,8.42441748046875,-5.294225767293572,-8.254667225992678,-0.045011194880283434
1774005591010496300,8.434496337890625,-5.2611704699099064,-8.275895891982316,-0.0028624838943083885
1774005591020574500,8.444574462890625,-5.223845824643969,-8.299383735075592,0.045308903751801695
1774005591030653400,8.4546533203125,-5.182464597463608,-8.324837325283884,0.09762852651588619
1774005591040731400,8.4647314453125,-5.137221434158087,-8.352017593154311,0.15213676363173873
1774005591050810400,8.474810302734374,-5.08872482201457,-8.380489654400945,0.20655317601198328
1774005591060888600,8.484888671875,-5.038586287882924,-8.409291385993361,0.2585317302534357
1774005591070966500,8.494966552734375,-4.988408006262779,-8.437569385972619,0.30593409915314984
1774005591081045500,8.50504541015625,-4.939889766809344,-8.464479604730009,0.34708778292164205
1774005591091123500,8.51512353515625,-4.8952223575651646,-8.48896522668898,0.3803502567825839
1774005591101202400,8.525202392578125,-4.85566454641968,-8.51052590111196,0.4047819565972313
1774005591111280400,8.5352802734375,-4.821928573295474,-8.528907945498824,0.42085400700867176
1774005591121359400,8.545359375,-4.794273089128732,-8.544012575650214,0.4303160281632095
1774005591131437600,8.5554375,-4.7724356435909865,-8.555982999429107,0.4351854608304798
1774005591141516500,8.5655166015625,-4.755241347683966,-8.56548732535541,0.43644528816584494
1774005591151594500,8.575594482421875,-4.740833175364137,-8.573544959604739,0.43500122683737424
1774005591161673500,8.585673583984375,-4.7277039369389415,-8.580996444654465,0.4309318950392306
1774005591171751400,8.59575146484375,-4.714582297298312,-8.588504628327488,0.4250763374114409
1774005591181830400,8.605830322265625,-4.7007577700853345,-8.596419639235734,0.41811742165163157
1774005591191908400,8.615908447265625,-4.686758470827341,-8.604442202171683,0.41019042804464695
1774005591201986600,8.625986572265624,-4.6729257603079075,-8.612375333258509,0.40141277242507784
1774005591212065500,8.6360654296875,-4.65941862848103,-8.620144798216224,0.3915475407645106
1774005591222143500,8.6461435546875,-4.647233977429568,-8.627192963162065,0.38097850821614265
1774005591232222500,8.656222412109376,-4.638716908974946,-8.632222774022818,0.3706980833508074
1774005591242300400,8.666300537109375,-4.6357042831555,-8.634244635239243,0.3612076763520017
1774005591252379400,8.67637939453125,-4.639349946181476,-8.632632523867487,0.35279837912078943
1774005591262457300,8.686457275390625,-4.6501785064488645,-8.627101777747272,0.3454673055803403
1774005591272536600,8.69653662109375,-4.667414595670998,-8.618049287241696,0.3388918361801654
1774005591282614500,8.706614501953124,-4.688183242933452,-8.607025788924098,0.3322983927318826
1774005591292693500,8.716693603515624,-4.709136306852102,-8.595873695790766,0.3246085323490202
1774005591302771500,8.726771484375,-4.7263382015436886,-8.58676742927134,0.3155130064193159
1774005591312849400,8.736849365234375,-4.734591942887008,-8.582631936901807,0.30404561852542683
1774005591322928400,8.746928466796875,-4.730414949463308,-8.585402570658921,0.290554707180988
1774005591333006300,8.75700634765625,-4.714253503735363,-8.594708159142732,0.2778576130953617
1774005591343085600,8.76708544921875,-4.691097961336374,-8.607629600036145,0.2696323123952374
1774005591353163500,8.77716357421875,-4.66979710689336,-8.619234697633981,0.26867806214401496
1774005591363242500,8.787242431640625,-4.658213052083552,-8.625306711024045,0.2748119983217679
1774005591373320400,8.797320556640624,-4.658931721746921,-8.624547417089342,0.28622467862004414
1774005591383399400,8.8073994140625,-4.668750228188932,-8.618805658566952,0.298929243626073
1774005591393477400,8.817477294921876,-4.681742980752885,-8.611398012658952,0.30905129959192124
1774005591403556400,8.827556396484376,-4.692461066383123,-8.60538094432652,0.3140627345457673
1774005591413634600,8.837634521484375,-4.697349130685627,-8.60275059582293,0.3130176459396258
1774005591423712500,8.84771240234375,-4.694528228046,-8.604538648283482,0.3060899655682966
1774005591433791500,8.85779150390625,-4.683874732084572,-8.61075328501463,0.2943048900273628
1774005591443869400,8.867869384765624,-4.669408107575774,-8.619071616026758,0.2804167595262639
1774005591453948400,8.877948486328124,-4.656901384963095,-8.62623200917542,0.26793135369624943
1774005591464026400,8.8880263671875,-4.650031791454554,-8.630209680634737,0.2589908539314754
1774005591474105300,8.898105224609376,-4.649546638286114,-8.630617092391848,0.2540720656971447
1774005591484183600,8.90818359375,-4.653613741594553,-8.628442086440325,0.25348474906217305
1774005591494262500,8.918262451171875,-4.658488069632649,-8.625733996525407,0.2561174904522486
1774005591504340500,8.928340576171875,-4.660458785183727,-8.62456962892115,0.2594642983958125
1774005591514419500,8.93841943359375,-4.657309673503041,-8.626239607959985,0.26046262525077907
1774005591524497400,8.948497314453125,-4.649155885402858,-8.630750947904586,0.25665064748087896
1774005591534575400,8.958575439453124,-4.637963460259139,-8.637080150926113,0.2460156370242126
1774005591544654300,8.968654296875,-4.626478774170577,-8.64376006708145,0.22693837691480293
1774005591554732500,8.978732666015626,-4.61744674193114,-8.649273277544975,0.19908968999721108
1774005591564811500,8.9888115234375,-4.612883087277412,-8.652457168278097,0.16332381848059593
1774005591574889500,8.998889404296875,-4.613187915442884,-8.652991421285272,0.12091670058490708
1774005591584968400,9.008968505859375,-4.617826096637547,-8.651044378870726,0.07416869024096522
1774005591595046400,9.01904638671875,-4.624910794201493,-8.647538416576385,0.02562474552411586
1774005591605125400,9.02912548828125,-4.632200951209664,-8.643644331747293,-0.02291890693178866
1774005591615203300,9.039203369140624,-4.637710362280905,-8.64043939822614,-0.06950026917166542
1774005591625282600,9.049282470703124,-4.640113331769406,-8.63868992421031,-0.11295638923021033
1774005591635360500,9.059360595703126,-4.638338723312318,-8.639040637344122,-0.15226269156634806
1774005591645438500,9.0694384765625,-4.63215243589282,-8.641663971585034,-0.18758940448071806
1774005591655517400,9.079517333984375,-4.622607193434238,-8.646028012013435,-0.2192567546373233
1774005591665595600,9.089595703125,-4.6110003422707315,-8.651447114452719,-0.24802272079661486
1774005591675674400,9.09967431640625,-4.597899745418131,-8.657632525089383,-0.2740428223138675
1774005591685752300,9.10975244140625,-4.583722751505673,-8.664384921959043,-0.29716035252371803
1774005591695831600,9.11983154296875,-4.569100351913273,-8.671377557325362,-0.31766883274633434
1774005591705909500,9.129909423828124,-4.555083516998589,-8.678090791228414,-0.33515739889219404
1774005591715987500,9.139987548828126,-4.542679377977549,-8.684052914503216,-0.34882823338080193
1774005591726066400,9.15006640625,-4.53093954808414,-8.689802271810173,-0.35821185553688556
1774005591736144600,9.16014453125,-4.51791143194586,-8.696371713328361,-0.3633068771209568
1774005591746223400,9.170223388671875,-4.501379107078909,-8.704905148395895,-0.36415472612194716
1774005591756301300,9.18030126953125,-4.479527340754866,-8.716282866978645,-0.3614331922035664
1774005591766380500,9.190380615234375,-4.451576965294778,-8.730830447769165,-0.35560470524579285
1774005591776458500,9.20045849609375,-4.417925747844577,-8.748229910859465,-0.34755945555400103
1774005591786537500,9.210537353515624,-4.380218240740895,-8.767544852182269,-0.3379852427292615
1774005591796615400,9.220615478515626,-4.340667443858087,-8.787595706564188,-0.3273457752931863
1774005591806694400,9.2306943359375,-4.30238213686645,-8.806820046994089,-0.31592925907000896
1774005591816772400,9.2407724609375,-4.267521543626487,-8.82420372799337,-0.3034435609790496
1774005591826850300,9.250850341796875,-4.237056847257912,-8.839341091370581,-0.2894550571097061
1774005591836929500,9.260929443359375,-4.211386107167601,-8.852088344740867,-0.27416685055233536
1774005591847007500,9.271007568359375,-4.191085369677841,-8.86219122108221,-0.25835186190819365
1774005591857086500,9.28108642578125,-4.175458761478961,-8.87000569422543,-0.24273780266363174
1774005591867164400,9.291164306640624,-4.161863659107685,-8.876769781532882,-0.22853329968973993
1774005591877243400,9.301243408203124,-4.148207766459882,-8.88343216203153,-0.21768009817143902
1774005591887321600,9.311321533203126,-4.132841562762856,-8.89074453087151,-0.211311841781158
1774005591897399600,9.321399658203125,-4.115773231323063,-8.898743128409981,-0.20774258672595022
1774005591907478500,9.331478515625,-4.1013387555181975,-8.905492602670192,-0.20397084963489323
1774005591917556500,9.341556396484375,-4.096054677635431,-8.908066252550482,-0.1976929018765688
1774005591927635500,9.351635498046875,-4.1068201095387336,-8.903339808550477,-0.18696838650554418
1774005591937713400,9.36171337890625,-4.136251078945398,-8.89003375225365,-0.17065047157425434
1774005591947792400,9.37179248046875,-4.181025455695391,-8.869440461558103,-0.1498299114614725
1774005591957870300,9.381870361328126,-4.233493017296492,-8.844848456615209,-0.12877128654280676
1774005591967949300,9.39194921875,-4.285306791163981,-8.820071742755173,-0.1134499631671235
1774005591978027300,9.40202734375,-4.32718690777719,-8.799649716973304,-0.10960527043770998
1774005591988105200,9.412105224609375,-4.349624949556589,-8.788436249041556,-0.12058933179406449
1774005591998184400,9.422184326171875,-4.345771781259775,-8.789957174998522,-0.14596452300390228
1774005592008262400,9.432262451171875,-4.314886813652516,-8.804500079613923,-0.1814411657829769
1774005592018341400,9.44234130859375,-4.264877166597545,-8.827938822868466,-0.22068028463441877
1774005592028419300,9.45241943359375,-4.208471973286569,-8.853994470623135,-0.2567676979892887
1774005592038498300,9.462498291015624,-4.157145398414134,-8.877360733163357,-0.28458907677484674
1774005592048576300,9.472576171875,-4.1209462500467895,-8.893649020141362,-0.301951696719788
1774005592058655200,9.4826552734375,-4.107454900310933,-8.89967953247726,-0.3080451912892982
1774005592068733200,9.492733154296875,-4.1193557659849525,-8.894322389358281,-0.30383442346015943
1774005592078811400,9.502811279296875,-4.153137039555609,-8.878997978976368,-0.2919550206992775
1774005592088890400,9.512890380859375,-4.200637626399099,-8.857106465163826,-0.27694667226290326
1774005592098968300,9.52296826171875,-4.2514086132153865,-8.83326323276162,-0.26337493250090627
1774005592109047300,9.53304736328125,-4.2984591182038185,-8.810774922099709,-0.2527394288538955
1774005592119125200,9.543125244140626,-4.339052702137828,-8.791102253380418,-0.24399896343955768
1774005592129204200,9.553204345703126,-4.373040896457433,-8.774491894841194,-0.23490604959204792
1774005592139282200,9.5632822265625,-4.401407159242034,-8.760614760658145,-0.2227760148046538
1774005592149361400,9.573361328125,-4.425654296270013,-8.748808003008365,-0.20574516583103686
1774005592159439400,9.583439453125,-4.447378636822104,-8.738284270906448,-0.183309571737051
1774005592169517300,9.593517333984375,-4.467344151008128,-8.728627384766936,-0.15581548867709935
1774005592179596500,9.603596435546875,-4.484546630221605,-8.720309053754805,-0.12422519494523293
1774005592189674500,9.613674560546874,-4.4966371732488275,-8.71449949069321,-0.09025260005355812
1774005592199753200,9.623753173828124,-4.501997238977253,-8.71202111788094,-0.05570949809781741
1774005592209831200,9.6338310546875,-4.499828662766516,-8.713291283947228,-0.021793903223541564
1774005592219910400,9.643910400390626,-4.49116721740514,-8.717779243016242,0.010977516309492057
1774005592229988400,9.65398828125,-4.477766760823131,-8.724576648071407,0.04194576572794467
1774005592240066300,9.66406640625,-4.462656577713787,-8.732128086364268,0.07078836362028959
1774005592250145500,9.6741455078125,-4.448409733435511,-8.739145271649956,0.09685216271537356
1774005592260223500,9.684223388671874,-4.437098065826296,-8.744613473927974,0.11956901230299845
1774005592270302200,9.69430224609375,-4.429038385750353,-8.748417542386054,0.138564439347852
1774005592280380200,9.704380126953126,-4.423969996444881,-8.750725234806538,0.15394026938974856
1774005592290459400,9.71445947265625,-4.42167808611542,-8.751655793654917,0.16637725123446434
1774005592300537300,9.724537353515625,-4.421146171195804,-8.751728858891129,0.17633719370746984
1774005592310615300,9.734615234375,-4.4208167931109665,-8.751723013672231,0.18470710877636445
1774005592320694500,9.744694580078125,-4.4187952241554855,-8.752589275112747,0.19187773105809464
1774005592330772500,9.7547724609375,-4.413953629343212,-8.75489696753323,0.19790650809463112
1774005592340851200,9.764851318359375,-4.405589705623686,-8.759012001636624,0.2021913640732877
1774005592350929200,9.77492919921875,-4.393870333996415,-8.764853713402152,0.20405573317306114
1774005592361008400,9.78500830078125,-4.380210349695385,-8.771692034989595,0.20385200902819633
1774005592371086300,9.79508642578125,-4.365763598930836,-8.778924908852577,0.20239680525120346
1774005592381164300,9.805164306640625,-4.35096467372775,-8.786316772669553,0.20032916866429148
1774005592391243300,9.8152431640625,-4.335720050583779,-8.793900944188236,0.19803208896936847
1774005592401321500,9.825321533203125,-4.32113564491421,-8.801121543091535,0.19607311865501104
1774005592411400200,9.835400146484375,-4.30818234757781,-8.807488740035891,0.19519003394385798
1774005592421478100,9.84547802734375,-4.297953799030185,-8.812472373667358,0.19574196873819455
1774005592431557400,9.855557373046874,-4.291560006339847,-8.81554695880711,0.19754954788312315
1774005592441635300,9.86563525390625,-4.289819007891416,-8.816344831186532,0.1997493229497224
1774005592451713300,9.87571337890625,-4.2923219306230544,-8.815104475736618,0.20072587636429814
1774005592461792300,9.885792236328125,-4.297464261947572,-8.812634286230802,0.19917676549246532
1774005592471870500,9.895870361328125,-4.302678489464522,-8.810190400210022,0.19469119930993764
1774005592481949400,9.905949462890625,-4.304567371951044,-8.809437536016105,0.18680837363824246
1774005592492027400,9.91602734375,-4.29914768498987,-8.812295263534784,0.17650456789731978
1774005592502106400,9.9261064453125,-4.282948245339095,-8.82039790596962,0.1653026625392027
1774005592512184300,9.936184326171874,-4.253084729734063,-8.835022643649578,0.15501723270518705
1774005592522262300,9.94626220703125,-4.209471213456988,-8.855995873573422,0.14858875229395926
1774005592532341200,9.95634130859375,-4.156106410755217,-8.88115661831498,0.14910201731203124
1774005592542419500,9.96641943359375,-4.100401182407141,-8.906861552935839,0.1578330755772069
1774005592552498400,9.97649853515625,-4.049306662724912,-8.929919772440195,0.17330014583282172
1774005592562576400,9.986576416015625,-4.007122302468121,-8.948551407673955,0.1917928109873086
1774005592572655400,9.9966552734375,-3.97461704018265,-8.962645399478077,0.20926796966232358
1774005592582733300,10.0067333984375,-3.948508493196964,-8.973899783942104,0.2208734691189602
1774005592592812300,10.016812255859374,-3.923757498300075,-8.984733312645554,0.2215193840733729
1774005592602890200,10.02689013671875,-3.8949820701926945,-8.997524405157565,0.2098904489422217
1774005592612968400,10.036968505859376,-3.8575294146329164,-9.01413301013112,0.18772258414002135
1774005592623047400,10.04704736328125,-3.808989547869563,-9.0352856882751,0.15999012574693186
1774005592633125400,10.05712548828125,-3.7516675319746136,-9.05967603316605,0.1328432030236814
1774005592643204000,10.0672041015625,-3.690850075179338,-9.084904582446812,0.1119343070403207
1774005592653282300,10.0772822265625,-3.631803719709813,-9.108805682516097,0.10024491042620502
1774005592663360300,10.0873603515625,-3.5801331537052987,-9.129272716483474,0.0970063668963965
1774005592673439200,10.097439208984374,-3.5400483960762616,-9.144858992671965,0.09994578134915791
1774005592683517200,10.10751708984375,-3.5149309059545395,-9.154470286104083,0.10640495829274878
1774005592693596400,10.117596435546876,-3.505971062168479,-9.157822519141435,0.11335642139846458
1774005592703674400,10.12767431640625,-3.511202240820229,-9.155760910436511,0.11790483281728811
1774005592713753300,10.13775341796875,-3.525993274977803,-9.150071758884192,0.11809605367360636
1774005592723831300,10.147831298828125,-3.5451962803587316,-9.142716719946264,0.11273472756985574
1774005592733909200,10.1579091796875,-3.5652333984762428,-9.135049546319246,0.10191551051954738
1774005592743988200,10.16798828125,-3.5839679095625874,-9.127871617513895,0.08673788819718174
1774005592754066200,10.178066162109374,-3.600930734801292,-9.121344846093654,0.06900760398362762
1774005592764145400,10.1881455078125,-3.617285657274723,-9.114996353849769,0.04958062625424936
1774005592774223400,10.198223388671876,-3.6346810287117957,-9.10816621556878,0.028090694962942506
1774005592784302300,10.20830224609375,-3.654922729490697,-9.100105658710003,0.0036959193504007997
1774005592794380500,10.218380615234375,-3.6783836845770477,-9.090615361309052,-0.024153227649850305
1774005592804458500,10.22845849609375,-3.7046544363871217,-9.079805798003077,-0.055095147325447756
1774005592814537200,10.238537109375,-3.731994278733432,-9.068339232093095,-0.08844138591312803
1774005592824615200,10.248615234375,-3.757589907760918,-9.057366002658009,-0.12259078041012399
1774005592834694400,10.2586943359375,-3.7791356768757103,-9.047896748045087,-0.15523754265867173
1774005592844772400,10.2687724609375,-3.7949656986922022,-9.040714143064617,-0.18468387403124942
1774005592854850300,10.278850341796876,-3.804731013642251,-9.036070116651057,-0.20940156944673508
1774005592864929500,10.288929443359375,-3.809065827976167,-9.033749564749002,-0.2297365562659688
1774005592875007500,10.299007568359375,-3.809742704324424,-9.033021834996342,-0.24648685299884526
1774005592885086200,10.309086181640625,-3.808000829093158,-9.033347413688897,-0.2610546545934863
1774005592895164200,10.3191640625,-3.804526138719916,-9.034407736396789,-0.274678270673193
1774005592905243400,10.329243408203125,-3.8005809082254767,-9.03563815497458,-0.28845773490173743
1774005592915321300,10.3393212890625,-3.7967411839321255,-9.036801938056945,-0.30226328341960906
1774005592925399300,10.3493994140625,-3.792857035975158,-9.037973904445767,-0.3156810929952189
1774005592935478300,10.359478271484376,-3.7878672648638485,-9.039642129918933,-0.3275787072662264
1774005592945556500,10.369556396484375,-3.7805934744685885,-9.042322747305034,-0.3374961075054481
1774005592955636200,10.37963623046875,-3.770924313369393,-9.046097005146741,-0.3444243358660489
1774005592965714200,10.389714111328125,-3.759016433432698,-9.050936261871456,-0.34746523793190714
1774005592975793200,10.399793212890625,-3.743704882532358,-9.057302289772034,-0.34688868015296753
1774005592985871400,10.409871337890625,-3.724373866857588,-9.065394410812853,-0.34359091724921015
1774005592995949300,10.41994921875,-3.7019203352481123,-9.074779494273661,-0.3384530063714832
1774005593006028300,10.4300283203125,-3.6786379515990615,-9.084452162504196,-0.33277536259386686
1774005593016106200,10.440106201171876,-3.6571421591058373,-9.093312345308066,-0.3276714270509779
1774005593026185200,10.450185302734376,-3.6403763177439568,-9.100158850201964,-0.32425697896499184
1774005593036263200,10.46026318359375,-3.6307919123187657,-9.104041244593262,-0.32274460164066404
1774005593046341000,10.470341064453125,-3.6297950102359056,-9.104457424178719,-0.32222021244037896
1774005593056420000,10.480420166015625,-3.6372216531053185,-9.10149156011045,-0.32226459957137704
1774005593066498300,10.490498291015625,-3.651348085874319,-9.095816437083482,-0.32277868657335634
1774005593076577300,10.500577392578125,-3.669457158538699,-9.088480687367916,-0.3240326686898246
1774005593086655200,10.5106552734375,-3.6885727778971193,-9.080652770221233,-0.32643600350450724
1774005593096734200,10.520734130859376,-3.7070688040524717,-9.073005470338463,-0.3295485460344702
1774005593106812200,10.530812255859376,-3.7260783326879143,-9.065154756838083,-0.3312138123655692
1774005593116890000,10.54089013671875,-3.7499557596206663,-9.055364015185832,-0.3295714519860223
1774005593126969000,10.550968994140625,-3.7842768391564485,-9.041244888940453,-0.32483426739629356
1774005593137047300,10.56104736328125,-3.833507026271522,-9.020723494437336,-0.31805761286821216
1774005593147126300,10.571126220703125,-3.8967312519475814,-8.99389627778828,-0.3093579909209162
1774005593157204200,10.581204345703124,-3.9682968972504136,-8.96291837120056,-0.29849846925968304
1774005593167282200,10.5912822265625,-4.041058474339544,-8.930753885176777,-0.28612410432239993
1774005593177361200,10.601361083984376,-4.108042344810069,-8.90047974294424,-0.27536088264249264
1774005593187439000,10.611439208984375,-4.160824379187822,-8.876119208669662,-0.2691459719167091
1774005593197518000,10.62151806640625,-4.192068243235349,-8.861430758103728,-0.2683121149084531
1774005593207596300,10.63159619140625,-4.197291238580644,-8.858849509438873,-0.2718708668359555
1774005593217675300,10.64167529296875,-4.177663285785913,-8.867950515261292,-0.27743065638756376
1774005593227753200,10.651753173828125,-4.141650015379488,-8.884660242521763,-0.2827115011336282
1774005593237831200,10.6618310546875,-4.100239562104642,-8.903753650048374,-0.28564810257479545
1774005593247910100,10.67191015625,-4.062518026475608,-8.92101282788515,-0.2861134733305313
1774005593257988000,10.681988037109376,-4.035344772867858,-8.933346824279427,-0.2858204999996349
1774005593268067000,10.692067138671876,-4.024688062036037,-8.938120030030607,-0.28684712136732415
1774005593278145300,10.702145263671875,-4.03398897434473,-8.933833731013536,-0.2896963367859833
1774005593288223200,10.71222314453125,-4.062790413676202,-8.920618275609613,-0.29445354125043377
1774005593298302200,10.72230224609375,-4.105357343509793,-8.900845653647185,-0.30229008009498937
1774005593308380200,10.732380126953124,-4.154124881549179,-8.877789187708496,-0.3138359400525689
1774005593318459400,10.74245947265625,-4.202703911279142,-8.854401882380246,-0.32745705364793537
1774005593328537300,10.752537353515624,-4.247179889604449,-8.832704429835081,-0.3393749069893732
1774005593338615300,10.762615234375,-4.285015114741027,-8.814161641928553,-0.34581882243175055
1774005593348694000,10.772694091796875,-4.3153135146319865,-8.799443965268134,-0.34386955152750015
1774005593358772200,10.782772216796875,-4.339025229609012,-8.7882240675956,-0.33219135216083373
1774005593368851200,10.792851318359375,-4.356669022849202,-8.780235991451145,-0.3118849886478856
1774005593378929200,10.80292919921875,-4.36795672506094,-8.775565661552548,-0.2842293766169809
1774005593389008400,10.81300830078125,-4.372500798231363,-8.774299587139486,-0.2515509679879993
1774005593399086300,10.82308642578125,-4.369497817023098,-8.776741719594597,-0.21603567369896917
1774005593409164300,10.833164306640626,-4.359015001453459,-8.78277866167128,-0.1793275711624883
1774005593419243000,10.843242919921876,-4.341746471266449,-8.792012938484548,-0.14190254339515232
1774005593429321200,10.8533212890625,-4.318973206183314,-8.803745461854339,-0.10447316824626177
1774005593439400200,10.863400146484375,-4.292560415554046,-8.817009432575107,-0.06819355678753927
1774005593449478100,10.87347802734375,-4.265239862430096,-8.830455774125456,-0.03406137828682549
1774005593459556000,10.88355615234375,-4.239775458566844,-8.842775157472492,-0.003431745424425753
1774005593469635300,10.89363525390625,-4.218383418709039,-8.852972141838073,0.022630251299694645
1774005593479713300,10.90371337890625,-4.202589052727818,-8.860404922187328,0.043138035119278356
1774005593489792000,10.9137919921875,-4.192921352933347,-8.864901649084686,0.0575402571889339
1774005593499870200,10.9238701171875,-4.188092033080756,-8.867121078699826,0.06658234503150451
1774005593509948200,10.9339482421875,-4.185330459412932,-8.86838481502533,0.07168105641000438
1774005593520027100,10.944027099609375,-4.182373070912063,-8.86976253311932,0.0738079032377107
1774005593530105000,10.95410498046875,-4.178148731215298,-8.871750492066145,0.07415381689881906
1774005593540184300,10.964184326171875,-4.1715795819580554,-8.8748531342566,0.07279081231676973
1774005593550262300,10.97426220703125,-4.162070287595689,-8.879341093325614,0.06980301954448223
1774005593560340200,10.98434033203125,-4.149456012955308,-8.885271652418375,0.0659445266185794
1774005593570419200,10.994419189453126,-4.134244999819994,-8.892392298078537,0.061199702145089394
1774005593580497200,11.0044970703125,-4.1172380431786175,-8.90031140064001,0.056317003570869564
1774005593590576000,11.014576171875,-4.099383237536252,-8.908577709203959,0.05172878986462019
1774005593600654000,11.024654052734375,-4.081348106890917,-8.916880842646956,0.047095946998777796
1774005593610732300,11.034732177734375,-4.063480441766977,-8.925063564580679,0.04179205017068889
1774005593620811300,11.044811279296875,-4.0462496132418515,-8.932918954256177,0.034868963776086455
1774005593630889200,11.05488916015625,-4.031389020979404,-8.93966433686316,0.026125288057932627
1774005593640968400,11.064968505859374,-4.021408017452061,-8.944182691070436,0.01591039015139104
1774005593651046400,11.07504638671875,-4.018057537980377,-8.945701278939843,0.005138990302427555
1774005593661125000,11.085125,-4.0212896517694,-8.944247573000192,-0.006157947811824852
1774005593671203000,11.095203125,-4.029408368556202,-8.940579113620519,-0.017509801871777746
1774005593681281000,11.105281005859375,-4.039954312489926,-8.935791294822096,-0.028178366396529597
1774005593691360300,11.1153603515625,-4.04932770551294,-8.93151376363337,-0.037404932544089387
1774005593701438200,11.125438232421875,-4.052897088432312,-8.929864827382564,-0.04380208851858042
1774005593711516200,11.13551611328125,-4.047020013092458,-8.932527909111975,-0.04428511822859291
1774005593721595400,11.145595458984374,-4.030024162366986,-8.940251781362294,-0.03462354221423156
1774005593731673300,11.15567333984375,-4.003622769914568,-8.952163752952217,-0.012465355130896204
1774005593741752000,11.165751953125,-3.9731577812850474,-8.965710632267594,0.020841917994641697
1774005593751830000,11.175830078125,-3.9453254792466756,-8.977810819905995,0.06086601777789183
1774005593761909200,11.1859091796875,-3.9257060020193455,-8.98602919767499,0.10244253006833605
1774005593771987200,11.1959873046875,-3.9168832286164164,-8.989358634358643,0.1408078982925508
1774005593782065200,11.206065185546874,-3.917563319835067,-8.988531535884738,0.1714393569296226
1774005593792144400,11.216144287109374,-3.9214366541370747,-8.986475772398709,0.18964966147877274
1774005593802222300,11.226222412109376,-3.9207507176995273,-8.986719518026709,0.192267753288988
1774005593812301000,11.236301025390626,-3.909866043330729,-8.991723025402425,0.17963892040029167
1774005593822379000,11.24637890625,-3.8873397387459874,-9.001901889589428,0.15726179676158353
1774005593832457200,11.256457275390625,-3.8562107332497835,-9.015672640788555,0.13292456116420215
1774005593842536200,11.2665361328125,-3.8226042317241427,-9.030251201239228,0.11250612471206113
1774005593852614100,11.2766142578125,-3.792643685485422,-9.04302417357266,0.09967649942110292
1774005593862692000,11.286692138671874,-3.7708246523872018,-9.052186554193495,0.09581909334058873
1774005593872771300,11.296771240234374,-3.7598920472234485,-9.056689126309752,0.09997260542400181
1774005593882849300,11.306849365234376,-3.7604660477191207,-9.056322046563029,0.11098897074791603
1774005593892928000,11.316927978515626,-3.7706814445242283,-9.051875588548183,0.12605242863870225
1774005593903006200,11.327006103515625,-3.785176418344676,-9.045583210405708,0.14223921887045726
1774005593913084200,11.337084228515625,-3.798675659126043,-9.039684800016879,0.1566608717263676
1774005593923163100,11.3471630859375,-3.807964880996942,-9.035584378960728,0.167323628706485
1774005593933241000,11.357240966796875,-3.812487619118392,-9.033555503481626,0.17373281989535316
1774005593943320300,11.3673203125,-3.813392166742682,-9.033135232242941,0.17578050967277958
1774005593953398300,11.377398193359374,-3.8122561484500763,-9.033656041246653,0.173645086812973
1774005593963476200,11.387476318359376,-3.810886029140651,-9.03434928420782,0.1675142741740681
1774005593973555200,11.39755517578125,-3.810723824316263,-9.0345941988796,0.15770743990354238
1774005593983633200,11.407633056640625,-3.812173146341741,-9.034197893038392,0.14479934254889376
1774005593993712000,11.417712158203125,-3.814139770239591,-9.033598758101462,0.12967005288028158
1774005594003790000,11.4277900390625,-3.8149490407958626,-9.033478931114077,0.11316989498357288
1774005594013868000,11.437867919921874,-3.81309756771028,-9.034467357629538,0.09521867062887177
1774005594023947300,11.447947265625,-3.8070606256335973,-9.037194736766814,0.07601028581992722
1774005594034025200,11.458025146484376,-3.7962723973765966,-9.041877926146984,0.055971569400373844
1774005594044104200,11.468104248046876,-3.7803023825675246,-9.048674162158369,0.034705952950811476
1774005594054182100,11.47818212890625,-3.759741825097799,-9.057294106465578,0.012320279537822353
1774005594064260000,11.488260009765625,-3.735571260437369,-9.067292353388666,-0.010510457061813212
1774005594074339000,11.498339111328125,-3.707938280363381,-9.078574210381507,-0.03272364742663922
1774005594084417000,11.5084169921875,-3.6768019683435558,-9.091132078659534,-0.05333774116490967
1774005594094496000,11.51849609375,-3.6430098811179397,-9.104602385607361,-0.0714171676096972
1774005594104574200,11.52857421875,-3.6083082778319713,-9.118279613304137,-0.08642717828019522
1774005594114652200,11.538652099609376,-3.5744022088378666,-9.131499744883179,-0.09868673033192753
1774005594124731100,11.548731201171876,-3.5425963269934058,-9.143771781957149,-0.10882738140039146
1774005594134809000,11.55880908203125,-3.512751808349788,-9.155176973068714,-0.11701071525546722
1774005594144888000,11.56888818359375,-3.4847669460982083,-9.165782538235186,-0.12340205112723633
1774005594154966000,11.578966064453125,-3.45784182203263,-9.175911133539676,-0.12793763046395032
1774005594165044000,11.5890439453125,-3.431486022287607,-9.185759158337115,-0.13079751340709625
1774005594175123200,11.599123291015625,-3.404262499797344,-9.1958766477257,-0.1312237394625321
1774005594185201200,11.609201171875,-3.374871862401068,-9.206737648957967,-0.1288128880616743
1774005594195279000,11.619279052734376,-3.3432784542635083,-9.21833280968368,-0.12339038808890618
1774005594205358000,11.629358154296876,-3.3114997526869177,-9.22989523718357,-0.11570958779533393
1774005594215436300,11.639436279296875,-3.281524008879065,-9.240697201704979,-0.1071916516910307
1774005594225515000,11.649514892578125,-3.255395880410075,-9.250023832976817,-0.09925921472394839
1774005594235593000,11.659593017578125,-3.2354309507459402,-9.25708836453557,-0.09317723706229589
1774005594245671000,11.6696708984375,-3.224119867658615,-9.261061944341659,-0.09038208078527822
1774005594255750100,11.679750244140624,-3.222770791137218,-9.261517871415615,-0.09175183476852253
1774005594265828000,11.689828125,-3.230215846446156,-9.25885771229565,-0.09817481702072545
1774005594275907000,11.699906982421876,-3.243401491233706,-9.254113148117066,-0.11011234317701309
1774005594285985300,11.7099853515625,-3.2582188288763163,-9.248681186196208,-0.12757743711574002
1774005594296063200,11.720063232421875,-3.271595320060849,-9.24364143846333,-0.14880583824389612
1774005594306142200,11.73014208984375,-3.2818668309673664,-9.239617005252837,-0.17092044762205333
1774005594316220200,11.74022021484375,-3.2901226181373,-9.236308611357211,-0.18994342026095837
1774005594326298000,11.750298095703124,-3.302057093819976,-9.231775059580803,-0.20277712807198986
1774005594336377000,11.760377197265624,-3.3257112333908676,-9.223168559277058,-0.20785072327554224
1774005594346455000,11.770455078125,-3.36488998209089,-9.209019622415303,-0.20462892995113505
1774005594356534000,11.780533935546876,-3.4163860683113336,-9.19028511132896,-0.19325126616731286
1774005594366612200,11.7906123046875,-3.4719422435775398,-9.169784175091982,-0.17624628228731454
1774005594376690200,11.800690185546875,-3.522114387717843,-9.15094912624061,-0.1588668025391176
1774005594386769200,11.81076904296875,-3.5558240573570132,-9.138110687455534,-0.14642254157024434
1774005594396847000,11.82084716796875,-3.563895720131695,-9.1350407784909,-0.14162668559583835
1774005594406926000,11.830926025390625,-3.5422894530013203,-9.14337956776917,-0.1455005039550364
1774005594417004000,11.841004150390624,-3.4954902924254534,-9.16116890695989,-0.15791023246664554
1774005594427082000,11.85108203125,-3.437476202613115,-9.18274828608334,-0.17685093364957719
1774005594437161200,11.8611611328125,-3.3833626273706554,-9.202372439485789,-0.19899128939034416
1774005594447239200,11.8712392578125,-3.344805809961259,-9.21590645931959,-0.2229450329623185
1774005594457317000,11.881317138671875,-3.330264366650581,-9.220530027467012,-0.24813918678313493
1774005594467396000,11.89139599609375,-3.3444095041200517,-9.214687731179595,-0.27359971818886697
1774005594477474300,11.901474365234375,-3.386358886577189,-9.198560187721252,-0.29909347601076586
1774005594487553000,11.911552978515624,-3.4485701358184215,-9.174570240324735,-0.3240500947486609
1774005594497631000,11.921630859375,-3.520159746518731,-9.146457660040259,-0.34810291478093713
1774005594507709000,11.931708984375,-3.590627075190842,-9.118120038828254,-0.37104934447389093
1774005594517788200,11.9417880859375,-3.6531168491125103,-9.092423872035742,-0.39109687438756224
1774005594527866000,11.9518662109375,-3.7045255493104454,-9.070991207906603,-0.40497674851696935
1774005594537944000,11.961944091796875,-3.7452833838954565,-9.054017861273884,-0.4098682468855753
1774005594548023300,11.972023193359375,-3.777814072883129,-9.040754475075007,-0.4040472491145134
1774005594558101200,11.982101318359375,-3.8047643313899635,-9.030170537218451,-0.38750929822437463
1774005594568180000,11.992179931640624,-3.826212777610123,-9.022166678982973,-0.3619312048535794
1774005594578258000,12.0022578125,-3.840796598757803,-9.017233314234018,-0.3288909223759547
1774005594588336000,12.012336181640626,-3.8471766551837323,-9.015842152136564,-0.2901638812324963
1774005594598415000,12.0224150390625,-3.844824831360578,-9.01810483637154,-0.248012710859254
1774005594608493000,12.0324931640625,-3.833835527573526,-9.023892772123217,-0.20362384456181898
1774005594618572300,12.042572265625,-3.8150615612596273,-9.032751201361418,-0.15848198620630427
1774005594628650200,12.052650146484375,-3.790078218911588,-9.043934274154902,-0.11384967567496933
1774005594638728200,12.062728271484374,-3.7610540767401455,-9.056479282951354,-0.07109755743362475
1774005594648807200,12.07280712890625,-3.730409932151437,-9.069367990618943,-0.03155204636399867
1774005594658885000,12.082885009765626,-3.6997669566065072,-9.081966190907359,0.003146055213442014
1774005594668963000,12.092963134765625,-3.670909987695515,-9.093611035993694,0.03251002294226782
1774005594679042000,12.1030419921875,-3.645236032734811,-9.103812112012506,0.056854740876494905
1774005594689120000,12.1131201171875,-3.622988837352395,-9.112546038088201,0.07639762746996712
1774005594699199200,12.12319921875,-3.603847791291773,-9.119982910090684,0.09259296176778152
1774005594709277200,12.133277099609375,-3.5863925063610074,-9.126700235646963,0.10728126620324328
1774005594719355100,12.143355224609374,-3.569112577997148,-9.133291888996958,0.12165586504703386
1774005594729434000,12.15343408203125,-3.5511847071185705,-9.14007701909244,0.13589688237272202
1774005594739512300,12.16351220703125,-3.53201355818063,-9.14729177277684,0.14940884563834406
1774005594749590300,12.17359033203125,-3.511546524213254,-9.154969467797875,0.16116125188553704
1774005594759669000,12.1836689453125,-3.4906668177917597,-9.162782771897316,0.1704170464108698
1774005594769747000,12.193746826171875,-3.470561310613155,-9.170310244792699,0.17605636747209355
1774005594779826200,12.203826171875,-3.4533439260914918,-9.176792008027434,0.17688156624985857
1774005594789904100,12.213904052734375,-3.4404581410333512,-9.181721281123162,0.17212852650387211
1774005594799982000,12.223982177734374,-3.4336280027523634,-9.184462688785791,0.16198034971607847
1774005594810061300,12.234061279296874,-3.433925232133269,-9.184586022904515,0.14810223828549496
1774005594820139300,12.24413916015625,-3.4427307621404526,-9.181536572206019,0.1318860758287832
1774005594830217200,12.25421728515625,-3.4599808798879383,-9.175278680855035,0.11486010395968332
1774005594840296000,12.2642958984375,-3.4839623517170546,-9.166389271956682,0.09843447260390967
1774005594850374100,12.2743740234375,-3.5109728159785267,-9.156229696992039,0.08320761344549246
1774005594860452000,12.2844521484375,-3.5365178838625546,-9.146506759878992,0.06964889756185003
1774005594870531000,12.294531005859374,-3.5563799376741048,-9.13888400991559,0.057744195962930095
1774005594880609000,12.304609130859374,-3.566902208471298,-9.134837949395179,0.04824168296779971
1774005594890688300,12.314688232421876,-3.5648286170676347,-9.135677907350658,0.04203242566466797
1774005594900766200,12.32476611328125,-3.547731644055247,-9.142340872371197,0.03998800098998472
1774005594910844200,12.33484423828125,-3.5157013058051465,-9.154692988944053,0.0427813078032108
1774005594920923100,12.344923095703125,-3.47363852610141,-9.170694860196113,0.050795303840213454
1774005594931001000,12.3550009765625,-3.429600646932423,-9.187183638182281,0.06233217677373904
1774005594941079000,12.3650791015625,-3.3910628264844416,-9.20139570340812,0.07338793795970268
1774005594951157800,12.37515771484375,-3.3623028882071373,-9.211885533240437,0.0803349988849368
1774005594961235700,12.385235595703126,-3.34350787910521,-9.21872327030599,0.08045823253896087
1774005594971313700,12.395313720703125,-3.331560836201906,-9.223115952306985,0.0722794013290666
1774005594981392600,12.405392578125,-3.3232217546626925,-9.226235545632242,0.056261021900200284
1774005594991470800,12.415470947265625,-3.3155881910443306,-9.229083336278796,0.03566317832712084
1774005595001549800,12.4255498046875,-3.3070909963339563,-9.2321889010787,0.014720475972280836
1774005595011627800,12.435627685546875,-3.298135828723013,-9.235403186950087,-0.00124656114300451
1774005595021705700,12.445705810546874,-3.2899273878261446,-9.238326380920409,-0.00896405930769688
1774005595031784700,12.45578466796875,-3.2838661880910394,-9.240484435737132,-0.007088657928077736
1774005595041862700,12.465862548828126,-3.280929550117254,-9.241530145397782,0.003986252057994716
1774005595051940600,12.475940673828125,-3.2820939177215096,-9.24108883137107,0.02316342202805681
1774005595062019600,12.48601953125,-3.2877988513648506,-9.238965263345838,0.0477791800225852
1774005595072097800,12.496097900390625,-3.2973648443505166,-9.235382144162058,0.07413376505805645
1774005595082175700,12.50617578125,-3.310081994843483,-9.230596663451195,0.09906401181225664
1774005595092254700,12.516254638671874,-3.3263469009459015,-9.224498931097983,0.12010216933162882
1774005595102332700,12.526332763671874,-3.3471883211836215,-9.216744079187512,0.135385681447573
1774005595112411600,12.53641162109375,-3.372683996967971,-9.20732860058844,0.14310468572652899
1774005595122489600,12.546489501953126,-3.4027038721784946,-9.19628815113604,0.1423702705047559
1774005595132567600,12.556567626953125,-3.4364965439260002,-9.183860046717523,0.1326508131235838
1774005595142646800,12.566646728515625,-3.4725355332955714,-9.170529440501332,0.11517882365318946
1774005595152724700,12.576724853515625,-3.5093756099149584,-9.156765703564881,0.09112469757981598
1774005595162802700,12.586802734375,-3.5443817491054532,-9.143514007803796,0.06241522454784717
1774005595172881700,12.596881591796874,-3.575423660840094,-9.131582162469625,0.030555324660940093
1774005595182959900,12.6069599609375,-3.601220949919522,-9.121490392044185,-0.002463934722020349
1774005595193037800,12.617037841796876,-3.621131519047916,-9.11353914077878,-0.03456184318882879
1774005595203116500,12.627116455078125,-3.635620647649467,-9.107605074554682,-0.06468774519024882
1774005595213194500,12.637194580078125,-3.6454210339128967,-9.103443278700112,-0.09278198153385891
1774005595223273700,12.647273681640625,-3.6518463907852765,-9.100553986999392,-0.11967746851299889
1774005595233351700,12.6573515625,-3.655293900890648,-9.098798667764664,-0.14518658830081113
1774005595243429600,12.6674296875,-3.655509004946053,-9.098306500333548,-0.16869168392298742
1774005595253508900,12.6775087890625,-3.6522312984496352,-9.099208417609333,-0.18977414637496695
1774005595263586800,12.6875869140625,-3.6448961332559584,-9.101759855657816,-0.2076111240996979
1774005595273664800,12.697664794921875,-3.6327141125530003,-9.106309774047135,-0.22112011909009888
1774005595283743700,12.70774365234375,-3.615498481597006,-9.112955203410982,-0.22933184792259706
1774005595293821700,12.71782177734375,-3.594107610782981,-9.121346599659324,-0.23196636114465072
1774005595303899600,12.727899658203125,-3.569563244374096,-9.131048493984341,-0.22927723165852948
1774005595313978600,12.737978515625,-3.543121519911289,-9.141521957203745,-0.22190038274759424
1774005595324056600,12.748056640625,-3.515542023590207,-9.152429135665297,-0.21068963649589567
1774005595334134800,12.758134765625,-3.487277175353467,-9.16353972774446,-0.19702656518863512
